"success","timeout","failed_images","failed_audio","failed_video","trial_type","trial_index","time_elapsed","internal_node_id","sequence_file","pay","passed_hc","completion_code","view_history","rt","stimulus","response","stim_type","hc_answer","correct_hc","repeat","yt_id","catch","isi","type","is_correct","response_type"
"true","false","[]","[]","[]","preload","0","433","0.0-0.0","https://mcdermottlab.mit.edu/mturk_stimuli/bjmedina/mem_exp_atexts_2025/sequences/isi_16/len120/seq054_len120_s15_isi-1p0_0p0_16p0.json","11.07","true","mqsel2qj1bm","","","","","","","","","","","","","",""
"","","","","","instructions","1","3950","0.0-1.0","https://mcdermottlab.mit.edu/mturk_stimuli/bjmedina/mem_exp_atexts_2025/sequences/isi_16/len120/seq054_len120_s15_isi-1p0_0p0_16p0.json","11.07","true","mqsel2qj1bm","[{""page_index"":0,""viewing_time"":3516}]","3516","","","","","","","","","","","",""
"","","","","","instructions","2","13640","0.0-2.0","https://mcdermottlab.mit.edu/mturk_stimuli/bjmedina/mem_exp_atexts_2025/sequences/isi_16/len120/seq054_len120_s15_isi-1p0_0p0_16p0.json","11.07","true","mqsel2qj1bm","[{""page_index"":0,""viewing_time"":9690}]","9690","","","","","","","","","","","",""
"","","","","","audio-button-response","3","70105","0.0-3.0-0.0","https://mcdermottlab.mit.edu/mturk_stimuli/bjmedina/mem_exp_atexts_2025/sequences/isi_16/len120/seq054_len120_s15_isi-1p0_0p0_16p0.json","11.07","true","mqsel2qj1bm","","56411","https://mcdermottlab.mit.edu/bjmedina/experiments/mem_exp_v01/assets/noise_calib_stim.wav","1","","","","","","","","","",""
"","","","","","instructions","4","86681","0.0-4.0","https://mcdermottlab.mit.edu/mturk_stimuli/bjmedina/mem_exp_atexts_2025/sequences/isi_16/len120/seq054_len120_s15_isi-1p0_0p0_16p0.json","11.07","true","mqsel2qj1bm","[{""page_index"":0,""viewing_time"":16575}]","16575","","","","","","","","","","","",""
"","","","","","audio-button-response","5","93989","0.0-5.0-0.0","https://mcdermottlab.mit.edu/mturk_stimuli/bjmedina/mem_exp_atexts_2025/sequences/isi_16/len120/seq054_len120_s15_isi-1p0_0p0_16p0.json","11.07","true","mqsel2qj1bm","","5331","https://mcdermottlab.mit.edu/bjmedina/experiments/mem_exp_v01/assets/antiphase_HC_OSI.wav","1","hc","2","1","","","","","","",""
"","","","","","audio-button-response","6","99275","0.0-5.0-0.1","https://mcdermottlab.mit.edu/mturk_stimuli/bjmedina/mem_exp_atexts_2025/sequences/isi_16/len120/seq054_len120_s15_isi-1p0_0p0_16p0.json","11.07","true","mqsel2qj1bm","","4539","https://mcdermottlab.mit.edu/bjmedina/experiments/mem_exp_v01/assets/antiphase_HC_ISO.wav","1","hc","2","1","","","","","","",""
"","","","","","audio-button-response","7","104229","0.0-5.0-0.2","https://mcdermottlab.mit.edu/mturk_stimuli/bjmedina/mem_exp_atexts_2025/sequences/isi_16/len120/seq054_len120_s15_isi-1p0_0p0_16p0.json","11.07","true","mqsel2qj1bm","","4251","https://mcdermottlab.mit.edu/bjmedina/experiments/mem_exp_v01/assets/antiphase_HC_SOI.wav","0","hc","1","1","","","","","","",""
"","","","","","audio-button-response","8","109455","0.0-5.0-0.3","https://mcdermottlab.mit.edu/mturk_stimuli/bjmedina/mem_exp_atexts_2025/sequences/isi_16/len120/seq054_len120_s15_isi-1p0_0p0_16p0.json","11.07","true","mqsel2qj1bm","","4741","https://mcdermottlab.mit.edu/bjmedina/experiments/mem_exp_v01/assets/antiphase_HC_OIS.wav","2","hc","3","1","","","","","","",""
"","","","","","audio-button-response","9","114939","0.0-5.0-0.4","https://mcdermottlab.mit.edu/mturk_stimuli/bjmedina/mem_exp_atexts_2025/sequences/isi_16/len120/seq054_len120_s15_isi-1p0_0p0_16p0.json","11.07","true","mqsel2qj1bm","","4341","https://mcdermottlab.mit.edu/bjmedina/experiments/mem_exp_v01/assets/antiphase_HC_IOS.wav","2","hc","3","1","","","","","","",""
"","","","","","audio-button-response","10","119572","0.0-5.0-0.5","https://mcdermottlab.mit.edu/mturk_stimuli/bjmedina/mem_exp_atexts_2025/sequences/isi_16/len120/seq054_len120_s15_isi-1p0_0p0_16p0.json","11.07","true","mqsel2qj1bm","","4139","https://mcdermottlab.mit.edu/bjmedina/experiments/mem_exp_v01/assets/antiphase_HC_SIO.wav","0","hc","1","1","","","","","","",""
"","","","","","html-keyboard-response","11","125381","0.0-6.0","https://mcdermottlab.mit.edu/mturk_stimuli/bjmedina/mem_exp_atexts_2025/sequences/isi_16/len120/seq054_len120_s15_isi-1p0_0p0_16p0.json","11.07","true","mqsel2qj1bm","","5808","<h1>You have finished the LOUDNESS task!</h1> <p>Press space to continue</p>"," ","","","","","","","","","",""
"","","","","","instructions","12","185772","0.0-7.0","https://mcdermottlab.mit.edu/mturk_stimuli/bjmedina/mem_exp_atexts_2025/sequences/isi_16/len120/seq054_len120_s15_isi-1p0_0p0_16p0.json","11.07","true","mqsel2qj1bm","[{""page_index"":0,""viewing_time"":8170},{""page_index"":1,""viewing_time"":16076},{""page_index"":2,""viewing_time"":27350},{""page_index"":3,""viewing_time"":8793}]","60390","","","","","","","","","","","",""
"","","","","","html-keyboard-response","13","185824","0.0-8.0-0.0","https://mcdermottlab.mit.edu/mturk_stimuli/bjmedina/mem_exp_atexts_2025/sequences/isi_16/len120/seq054_len120_s15_isi-1p0_0p0_16p0.json","11.07","true","mqsel2qj1bm","","null","<span style=""font-size: 40px"">+</span>","null","fixation","","","","","","","","",""
"","","","","","audio-button-response","14","194570","0.0-8.0-1.0","https://mcdermottlab.mit.edu/mturk_stimuli/bjmedina/mem_exp_atexts_2025/sequences/isi_16/len120/seq054_len120_s15_isi-1p0_0p0_16p0.json","11.07","true","mqsel2qj1bm","","7739","https://mcdermottlab.mit.edu/mturk_stimuli/bjmedina/mem_exp_v05/mem_stim_1023_f32.wav","0","demo","","","0","","","","","",""
"","","","","","html-keyboard-response","15","194631","0.0-8.0-0.1","https://mcdermottlab.mit.edu/mturk_stimuli/bjmedina/mem_exp_atexts_2025/sequences/isi_16/len120/seq054_len120_s15_isi-1p0_0p0_16p0.json","11.07","true","mqsel2qj1bm","","null","<span style=""font-size: 40px"">+</span>","null","fixation","","","","","","","","",""
"","","","","","audio-button-response","16","199720","0.0-8.0-1.1","https://mcdermottlab.mit.edu/mturk_stimuli/bjmedina/mem_exp_atexts_2025/sequences/isi_16/len120/seq054_len120_s15_isi-1p0_0p0_16p0.json","11.07","true","mqsel2qj1bm","","4240","https://mcdermottlab.mit.edu/mturk_stimuli/bjmedina/mem_exp_v05/mem_stim_1022_f32.wav","0","demo","","","0","","","","","",""
"","","","","","html-keyboard-response","17","199772","0.0-8.0-0.2","https://mcdermottlab.mit.edu/mturk_stimuli/bjmedina/mem_exp_atexts_2025/sequences/isi_16/len120/seq054_len120_s15_isi-1p0_0p0_16p0.json","11.07","true","mqsel2qj1bm","","null","<span style=""font-size: 40px"">+</span>","null","fixation","","","","","","","","",""
"","","","","","audio-button-response","18","202926","0.0-8.0-1.2","https://mcdermottlab.mit.edu/mturk_stimuli/bjmedina/mem_exp_atexts_2025/sequences/isi_16/len120/seq054_len120_s15_isi-1p0_0p0_16p0.json","11.07","true","mqsel2qj1bm","","3160","https://mcdermottlab.mit.edu/mturk_stimuli/bjmedina/mem_exp_v05/mem_stim_1022_f32.wav","3","demo","","","1","","","","","",""
"","","","","","html-keyboard-response","19","202984","0.0-8.0-0.3","https://mcdermottlab.mit.edu/mturk_stimuli/bjmedina/mem_exp_atexts_2025/sequences/isi_16/len120/seq054_len120_s15_isi-1p0_0p0_16p0.json","11.07","true","mqsel2qj1bm","","null","<span style=""font-size: 40px"">+</span>","null","fixation","","","","","","","","",""
"","","","","","audio-button-response","20","206481","0.0-8.0-1.3","https://mcdermottlab.mit.edu/mturk_stimuli/bjmedina/mem_exp_atexts_2025/sequences/isi_16/len120/seq054_len120_s15_isi-1p0_0p0_16p0.json","11.07","true","mqsel2qj1bm","","2632","https://mcdermottlab.mit.edu/mturk_stimuli/bjmedina/mem_exp_v05/mem_stim_1021_f32.wav","3","demo","","","0","","","","","",""
"","","","","","html-keyboard-response","21","206544","0.0-8.0-0.4","https://mcdermottlab.mit.edu/mturk_stimuli/bjmedina/mem_exp_atexts_2025/sequences/isi_16/len120/seq054_len120_s15_isi-1p0_0p0_16p0.json","11.07","true","mqsel2qj1bm","","null","<span style=""font-size: 40px"">+</span>","null","fixation","","","","","","","","",""
"","","","","","audio-button-response","22","211488","0.0-8.0-1.4","https://mcdermottlab.mit.edu/mturk_stimuli/bjmedina/mem_exp_atexts_2025/sequences/isi_16/len120/seq054_len120_s15_isi-1p0_0p0_16p0.json","11.07","true","mqsel2qj1bm","","4949","https://mcdermottlab.mit.edu/mturk_stimuli/bjmedina/mem_exp_v05/mem_stim_1023_f32.wav","0","demo","","","1","","","","","",""
"","","","","","html-keyboard-response","23","211549","0.0-8.0-0.5","https://mcdermottlab.mit.edu/mturk_stimuli/bjmedina/mem_exp_atexts_2025/sequences/isi_16/len120/seq054_len120_s15_isi-1p0_0p0_16p0.json","11.07","true","mqsel2qj1bm","","null","<span style=""font-size: 40px"">+</span>","null","fixation","","","","","","","","",""
"","","","","","audio-button-response","24","214974","0.0-8.0-1.5","https://mcdermottlab.mit.edu/mturk_stimuli/bjmedina/mem_exp_atexts_2025/sequences/isi_16/len120/seq054_len120_s15_isi-1p0_0p0_16p0.json","11.07","true","mqsel2qj1bm","","2680","https://mcdermottlab.mit.edu/mturk_stimuli/bjmedina/mem_exp_v05/mem_stim_1020_f32.wav","0","demo","","","0","","","","","",""
"","","","","","html-keyboard-response","25","215030","0.0-8.0-0.6","https://mcdermottlab.mit.edu/mturk_stimuli/bjmedina/mem_exp_atexts_2025/sequences/isi_16/len120/seq054_len120_s15_isi-1p0_0p0_16p0.json","11.07","true","mqsel2qj1bm","","null","<span style=""font-size: 40px"">+</span>","null","fixation","","","","","","","","",""
"","","","","","audio-button-response","26","218277","0.0-8.0-1.6","https://mcdermottlab.mit.edu/mturk_stimuli/bjmedina/mem_exp_atexts_2025/sequences/isi_16/len120/seq054_len120_s15_isi-1p0_0p0_16p0.json","11.07","true","mqsel2qj1bm","","2661","https://mcdermottlab.mit.edu/mturk_stimuli/bjmedina/mem_exp_v05/mem_stim_1019_f32.wav","0","demo","","","0","","","","","",""
"","","","","","html-keyboard-response","27","218340","0.0-8.0-0.7","https://mcdermottlab.mit.edu/mturk_stimuli/bjmedina/mem_exp_atexts_2025/sequences/isi_16/len120/seq054_len120_s15_isi-1p0_0p0_16p0.json","11.07","true","mqsel2qj1bm","","null","<span style=""font-size: 40px"">+</span>","null","fixation","","","","","","","","",""
"","","","","","audio-button-response","28","221876","0.0-8.0-1.7","https://mcdermottlab.mit.edu/mturk_stimuli/bjmedina/mem_exp_atexts_2025/sequences/isi_16/len120/seq054_len120_s15_isi-1p0_0p0_16p0.json","11.07","true","mqsel2qj1bm","","3541","https://mcdermottlab.mit.edu/mturk_stimuli/bjmedina/mem_exp_v05/mem_stim_1021_f32.wav","3","demo","","","1","","","","","",""
"","","","","","html-keyboard-response","29","226228","0.0-9.0","https://mcdermottlab.mit.edu/mturk_stimuli/bjmedina/mem_exp_atexts_2025/sequences/isi_16/len120/seq054_len120_s15_isi-1p0_0p0_16p0.json","11.07","true","mqsel2qj1bm","","4351","<p>You are now ready to start the experiment. Press SPACE when you are ready to start.</p>"," ","","","","","","","","","",""
"","","","","","html-keyboard-response","30","226280","0.0-10.0-1.0","https://mcdermottlab.mit.edu/mturk_stimuli/bjmedina/mem_exp_atexts_2025/sequences/isi_16/len120/seq054_len120_s15_isi-1p0_0p0_16p0.json","11.07","true","mqsel2qj1bm","","null","<span style=""font-size: 40px"">+</span>","null","","","","","","","","","",""
"","","","","","audio-button-response","31","231028","0.0-10.0-2.0","https://mcdermottlab.mit.edu/mturk_stimuli/bjmedina/mem_exp_atexts_2025/sequences/isi_16/len120/seq054_len120_s15_isi-1p0_0p0_16p0.json","11.07","true","mqsel2qj1bm","","3891","https://mcdermottlab.mit.edu/mturk_stimuli/bjmedina/mem_exp_atexts_2025/mem_stim_5.wav","0","main","","","false","mem_stim_5.wav","false","-1","","1","correct_rejection"
"","","","","","html-keyboard-response","32","231087","0.0-10.0-1.1","https://mcdermottlab.mit.edu/mturk_stimuli/bjmedina/mem_exp_atexts_2025/sequences/isi_16/len120/seq054_len120_s15_isi-1p0_0p0_16p0.json","11.07","true","mqsel2qj1bm","","null","<span style=""font-size: 40px"">+</span>","null","","","","","","","","","",""
"","","","","","audio-button-response","33","234534","0.0-10.0-2.1","https://mcdermottlab.mit.edu/mturk_stimuli/bjmedina/mem_exp_atexts_2025/sequences/isi_16/len120/seq054_len120_s15_isi-1p0_0p0_16p0.json","11.07","true","mqsel2qj1bm","","2619","https://mcdermottlab.mit.edu/mturk_stimuli/bjmedina/mem_exp_atexts_2025/mem_stim_71.wav","0","main","","","false","mem_stim_71.wav","false","-1","","1","correct_rejection"
"","","","","","html-keyboard-response","34","234596","0.0-10.0-1.2","https://mcdermottlab.mit.edu/mturk_stimuli/bjmedina/mem_exp_atexts_2025/sequences/isi_16/len120/seq054_len120_s15_isi-1p0_0p0_16p0.json","11.07","true","mqsel2qj1bm","","null","<span style=""font-size: 40px"">+</span>","null","","","","","","","","","",""
"","","","","","audio-button-response","35","237717","0.0-10.0-2.2","https://mcdermottlab.mit.edu/mturk_stimuli/bjmedina/mem_exp_atexts_2025/sequences/isi_16/len120/seq054_len120_s15_isi-1p0_0p0_16p0.json","11.07","true","mqsel2qj1bm","","2571","https://mcdermottlab.mit.edu/mturk_stimuli/bjmedina/mem_exp_atexts_2025/mem_stim_9.wav","0","main","","","false","mem_stim_9.wav","false","-1","","1","correct_rejection"
"","","","","","html-keyboard-response","36","237776","0.0-10.0-1.3","https://mcdermottlab.mit.edu/mturk_stimuli/bjmedina/mem_exp_atexts_2025/sequences/isi_16/len120/seq054_len120_s15_isi-1p0_0p0_16p0.json","11.07","true","mqsel2qj1bm","","null","<span style=""font-size: 40px"">+</span>","null","","","","","","","","","",""
"","","","","","audio-button-response","37","242021","0.0-10.0-2.3","https://mcdermottlab.mit.edu/mturk_stimuli/bjmedina/mem_exp_atexts_2025/sequences/isi_16/len120/seq054_len120_s15_isi-1p0_0p0_16p0.json","11.07","true","mqsel2qj1bm","","3579","https://mcdermottlab.mit.edu/mturk_stimuli/bjmedina/mem_exp_atexts_2025/mem_stim_62.wav","0","main","","","false","mem_stim_62.wav","false","-1","","1","correct_rejection"
"","","","","","html-keyboard-response","38","242080","0.0-10.0-1.4","https://mcdermottlab.mit.edu/mturk_stimuli/bjmedina/mem_exp_atexts_2025/sequences/isi_16/len120/seq054_len120_s15_isi-1p0_0p0_16p0.json","11.07","true","mqsel2qj1bm","","null","<span style=""font-size: 40px"">+</span>","null","","","","","","","","","",""
"","","","","","audio-button-response","39","245711","0.0-10.0-2.4","https://mcdermottlab.mit.edu/mturk_stimuli/bjmedina/mem_exp_atexts_2025/sequences/isi_16/len120/seq054_len120_s15_isi-1p0_0p0_16p0.json","11.07","true","mqsel2qj1bm","","3051","https://mcdermottlab.mit.edu/mturk_stimuli/bjmedina/mem_exp_atexts_2025/mem_stim_37.wav","0","main","","","false","mem_stim_37.wav","false","-1","","1","correct_rejection"
"","","","","","html-keyboard-response","40","245773","0.0-10.0-1.5","https://mcdermottlab.mit.edu/mturk_stimuli/bjmedina/mem_exp_atexts_2025/sequences/isi_16/len120/seq054_len120_s15_isi-1p0_0p0_16p0.json","11.07","true","mqsel2qj1bm","","null","<span style=""font-size: 40px"">+</span>","null","","","","","","","","","",""
"","","","","","audio-button-response","41","249119","0.0-10.0-2.5","https://mcdermottlab.mit.edu/mturk_stimuli/bjmedina/mem_exp_atexts_2025/sequences/isi_16/len120/seq054_len120_s15_isi-1p0_0p0_16p0.json","11.07","true","mqsel2qj1bm","","2760","https://mcdermottlab.mit.edu/mturk_stimuli/bjmedina/mem_exp_atexts_2025/mem_stim_14.wav","0","main","","","false","mem_stim_14.wav","false","-1","","1","correct_rejection"
"","","","","","html-keyboard-response","42","249185","0.0-10.0-1.6","https://mcdermottlab.mit.edu/mturk_stimuli/bjmedina/mem_exp_atexts_2025/sequences/isi_16/len120/seq054_len120_s15_isi-1p0_0p0_16p0.json","11.07","true","mqsel2qj1bm","","null","<span style=""font-size: 40px"">+</span>","null","","","","","","","","","",""
"","","","","","audio-button-response","43","251772","0.0-10.0-2.6","https://mcdermottlab.mit.edu/mturk_stimuli/bjmedina/mem_exp_atexts_2025/sequences/isi_16/len120/seq054_len120_s15_isi-1p0_0p0_16p0.json","11.07","true","mqsel2qj1bm","","2589","https://mcdermottlab.mit.edu/mturk_stimuli/bjmedina/mem_exp_atexts_2025/mem_stim_14.wav","3","main","","","true","mem_stim_14.wav","true","0","","0","miss"
"","","","","","html-keyboard-response","44","251833","0.0-10.0-1.7","https://mcdermottlab.mit.edu/mturk_stimuli/bjmedina/mem_exp_atexts_2025/sequences/isi_16/len120/seq054_len120_s15_isi-1p0_0p0_16p0.json","11.07","true","mqsel2qj1bm","","null","<span style=""font-size: 40px"">+</span>","null","","","","","","","","","",""
"","","","","","audio-button-response","45","256879","0.0-10.0-2.7","https://mcdermottlab.mit.edu/mturk_stimuli/bjmedina/mem_exp_atexts_2025/sequences/isi_16/len120/seq054_len120_s15_isi-1p0_0p0_16p0.json","11.07","true","mqsel2qj1bm","","4080","https://mcdermottlab.mit.edu/mturk_stimuli/bjmedina/mem_exp_atexts_2025/mem_stim_58.wav","2","main","","","false","mem_stim_58.wav","false","-1","","1","correct_rejection"
"","","","","","html-keyboard-response","46","256939","0.0-10.0-1.8","https://mcdermottlab.mit.edu/mturk_stimuli/bjmedina/mem_exp_atexts_2025/sequences/isi_16/len120/seq054_len120_s15_isi-1p0_0p0_16p0.json","11.07","true","mqsel2qj1bm","","null","<span style=""font-size: 40px"">+</span>","null","","","","","","","","","",""
"","","","","","audio-button-response","47","261867","0.0-10.0-2.8","https://mcdermottlab.mit.edu/mturk_stimuli/bjmedina/mem_exp_atexts_2025/sequences/isi_16/len120/seq054_len120_s15_isi-1p0_0p0_16p0.json","11.07","true","mqsel2qj1bm","","3869","https://mcdermottlab.mit.edu/mturk_stimuli/bjmedina/mem_exp_atexts_2025/mem_stim_18.wav","1","main","","","false","mem_stim_18.wav","false","-1","","0","false_alarm"
"","","","","","html-keyboard-response","48","261927","0.0-10.0-1.9","https://mcdermottlab.mit.edu/mturk_stimuli/bjmedina/mem_exp_atexts_2025/sequences/isi_16/len120/seq054_len120_s15_isi-1p0_0p0_16p0.json","11.07","true","mqsel2qj1bm","","null","<span style=""font-size: 40px"">+</span>","null","","","","","","","","","",""
"","","","","","audio-button-response","49","264645","0.0-10.0-2.9","https://mcdermottlab.mit.edu/mturk_stimuli/bjmedina/mem_exp_atexts_2025/sequences/isi_16/len120/seq054_len120_s15_isi-1p0_0p0_16p0.json","11.07","true","mqsel2qj1bm","","2712","https://mcdermottlab.mit.edu/mturk_stimuli/bjmedina/mem_exp_atexts_2025/mem_stim_18.wav","3","main","","","true","mem_stim_18.wav","true","0","","0","miss"
"","","","","","html-keyboard-response","50","264713","0.0-10.0-1.10","https://mcdermottlab.mit.edu/mturk_stimuli/bjmedina/mem_exp_atexts_2025/sequences/isi_16/len120/seq054_len120_s15_isi-1p0_0p0_16p0.json","11.07","true","mqsel2qj1bm","","null","<span style=""font-size: 40px"">+</span>","null","","","","","","","","","",""
"","","","","","audio-button-response","51","268924","0.0-10.0-2.10","https://mcdermottlab.mit.edu/mturk_stimuli/bjmedina/mem_exp_atexts_2025/sequences/isi_16/len120/seq054_len120_s15_isi-1p0_0p0_16p0.json","11.07","true","mqsel2qj1bm","","3520","https://mcdermottlab.mit.edu/mturk_stimuli/bjmedina/mem_exp_atexts_2025/mem_stim_26.wav","1","main","","","false","mem_stim_26.wav","false","-1","","0","false_alarm"
"","","","","","html-keyboard-response","52","268992","0.0-10.0-1.11","https://mcdermottlab.mit.edu/mturk_stimuli/bjmedina/mem_exp_atexts_2025/sequences/isi_16/len120/seq054_len120_s15_isi-1p0_0p0_16p0.json","11.07","true","mqsel2qj1bm","","null","<span style=""font-size: 40px"">+</span>","null","","","","","","","","","",""
"","","","","","audio-button-response","53","272482","0.0-10.0-2.11","https://mcdermottlab.mit.edu/mturk_stimuli/bjmedina/mem_exp_atexts_2025/sequences/isi_16/len120/seq054_len120_s15_isi-1p0_0p0_16p0.json","11.07","true","mqsel2qj1bm","","2832","https://mcdermottlab.mit.edu/mturk_stimuli/bjmedina/mem_exp_atexts_2025/mem_stim_29.wav","2","main","","","false","mem_stim_29.wav","false","-1","","1","correct_rejection"
"","","","","","html-keyboard-response","54","272545","0.0-10.0-1.12","https://mcdermottlab.mit.edu/mturk_stimuli/bjmedina/mem_exp_atexts_2025/sequences/isi_16/len120/seq054_len120_s15_isi-1p0_0p0_16p0.json","11.07","true","mqsel2qj1bm","","null","<span style=""font-size: 40px"">+</span>","null","","","","","","","","","",""
"","","","","","audio-button-response","55","275703","0.0-10.0-2.12","https://mcdermottlab.mit.edu/mturk_stimuli/bjmedina/mem_exp_atexts_2025/sequences/isi_16/len120/seq054_len120_s15_isi-1p0_0p0_16p0.json","11.07","true","mqsel2qj1bm","","2571","https://mcdermottlab.mit.edu/mturk_stimuli/bjmedina/mem_exp_atexts_2025/mem_stim_17.wav","3","main","","","false","mem_stim_17.wav","false","-1","","1","correct_rejection"
"","","","","","html-keyboard-response","56","275758","0.0-10.0-1.13","https://mcdermottlab.mit.edu/mturk_stimuli/bjmedina/mem_exp_atexts_2025/sequences/isi_16/len120/seq054_len120_s15_isi-1p0_0p0_16p0.json","11.07","true","mqsel2qj1bm","","null","<span style=""font-size: 40px"">+</span>","null","","","","","","","","","",""
"","","","","","audio-button-response","57","278308","0.0-10.0-2.13","https://mcdermottlab.mit.edu/mturk_stimuli/bjmedina/mem_exp_atexts_2025/sequences/isi_16/len120/seq054_len120_s15_isi-1p0_0p0_16p0.json","11.07","true","mqsel2qj1bm","","2549","https://mcdermottlab.mit.edu/mturk_stimuli/bjmedina/mem_exp_atexts_2025/mem_stim_17.wav","3","main","","","true","mem_stim_17.wav","true","0","","0","miss"
"","","","","","html-keyboard-response","58","278362","0.0-10.0-1.14","https://mcdermottlab.mit.edu/mturk_stimuli/bjmedina/mem_exp_atexts_2025/sequences/isi_16/len120/seq054_len120_s15_isi-1p0_0p0_16p0.json","11.07","true","mqsel2qj1bm","","null","<span style=""font-size: 40px"">+</span>","null","","","","","","","","","",""
"","","","","","audio-button-response","59","282881","0.0-10.0-2.14","https://mcdermottlab.mit.edu/mturk_stimuli/bjmedina/mem_exp_atexts_2025/sequences/isi_16/len120/seq054_len120_s15_isi-1p0_0p0_16p0.json","11.07","true","mqsel2qj1bm","","3621","https://mcdermottlab.mit.edu/mturk_stimuli/bjmedina/mem_exp_atexts_2025/mem_stim_15.wav","2","main","","","false","mem_stim_15.wav","false","-1","","1","correct_rejection"
"","","","","","html-keyboard-response","60","282936","0.0-10.0-1.15","https://mcdermottlab.mit.edu/mturk_stimuli/bjmedina/mem_exp_atexts_2025/sequences/isi_16/len120/seq054_len120_s15_isi-1p0_0p0_16p0.json","11.07","true","mqsel2qj1bm","","null","<span style=""font-size: 40px"">+</span>","null","","","","","","","","","",""
"","","","","","audio-button-response","61","285540","0.0-10.0-2.15","https://mcdermottlab.mit.edu/mturk_stimuli/bjmedina/mem_exp_atexts_2025/sequences/isi_16/len120/seq054_len120_s15_isi-1p0_0p0_16p0.json","11.07","true","mqsel2qj1bm","","2611","https://mcdermottlab.mit.edu/mturk_stimuli/bjmedina/mem_exp_atexts_2025/mem_stim_15.wav","3","main","","","true","mem_stim_15.wav","true","0","","0","miss"
"","","","","","html-keyboard-response","62","285601","0.0-10.0-1.16","https://mcdermottlab.mit.edu/mturk_stimuli/bjmedina/mem_exp_atexts_2025/sequences/isi_16/len120/seq054_len120_s15_isi-1p0_0p0_16p0.json","11.07","true","mqsel2qj1bm","","null","<span style=""font-size: 40px"">+</span>","null","","","","","","","","","",""
"","","","","","audio-button-response","63","289556","0.0-10.0-2.16","https://mcdermottlab.mit.edu/mturk_stimuli/bjmedina/mem_exp_atexts_2025/sequences/isi_16/len120/seq054_len120_s15_isi-1p0_0p0_16p0.json","11.07","true","mqsel2qj1bm","","2952","https://mcdermottlab.mit.edu/mturk_stimuli/bjmedina/mem_exp_atexts_2025/mem_stim_64.wav","0","main","","","false","mem_stim_64.wav","false","-1","","1","correct_rejection"
"","","","","","html-keyboard-response","64","289621","0.0-10.0-1.17","https://mcdermottlab.mit.edu/mturk_stimuli/bjmedina/mem_exp_atexts_2025/sequences/isi_16/len120/seq054_len120_s15_isi-1p0_0p0_16p0.json","11.07","true","mqsel2qj1bm","","null","<span style=""font-size: 40px"">+</span>","null","","","","","","","","","",""
"","","","","","audio-button-response","65","293354","0.0-10.0-2.17","https://mcdermottlab.mit.edu/mturk_stimuli/bjmedina/mem_exp_atexts_2025/sequences/isi_16/len120/seq054_len120_s15_isi-1p0_0p0_16p0.json","11.07","true","mqsel2qj1bm","","3069","https://mcdermottlab.mit.edu/mturk_stimuli/bjmedina/mem_exp_atexts_2025/mem_stim_66.wav","0","main","","","false","mem_stim_66.wav","false","-1","","1","correct_rejection"
"","","","","","html-keyboard-response","66","293423","0.0-10.0-1.18","https://mcdermottlab.mit.edu/mturk_stimuli/bjmedina/mem_exp_atexts_2025/sequences/isi_16/len120/seq054_len120_s15_isi-1p0_0p0_16p0.json","11.07","true","mqsel2qj1bm","","null","<span style=""font-size: 40px"">+</span>","null","","","","","","","","","",""
"","","","","","audio-button-response","67","296568","0.0-10.0-2.18","https://mcdermottlab.mit.edu/mturk_stimuli/bjmedina/mem_exp_atexts_2025/sequences/isi_16/len120/seq054_len120_s15_isi-1p0_0p0_16p0.json","11.07","true","mqsel2qj1bm","","2528","https://mcdermottlab.mit.edu/mturk_stimuli/bjmedina/mem_exp_atexts_2025/mem_stim_69.wav","3","main","","","false","mem_stim_69.wav","false","-1","","1","correct_rejection"
"","","","","","html-keyboard-response","68","296623","0.0-10.0-1.19","https://mcdermottlab.mit.edu/mturk_stimuli/bjmedina/mem_exp_atexts_2025/sequences/isi_16/len120/seq054_len120_s15_isi-1p0_0p0_16p0.json","11.07","true","mqsel2qj1bm","","null","<span style=""font-size: 40px"">+</span>","null","","","","","","","","","",""
"","","","","","audio-button-response","69","300042","0.0-10.0-2.19","https://mcdermottlab.mit.edu/mturk_stimuli/bjmedina/mem_exp_atexts_2025/sequences/isi_16/len120/seq054_len120_s15_isi-1p0_0p0_16p0.json","11.07","true","mqsel2qj1bm","","2752","https://mcdermottlab.mit.edu/mturk_stimuli/bjmedina/mem_exp_atexts_2025/mem_stim_49.wav","0","main","","","false","mem_stim_49.wav","false","-1","","1","correct_rejection"
"","","","","","html-keyboard-response","70","300099","0.0-10.0-1.20","https://mcdermottlab.mit.edu/mturk_stimuli/bjmedina/mem_exp_atexts_2025/sequences/isi_16/len120/seq054_len120_s15_isi-1p0_0p0_16p0.json","11.07","true","mqsel2qj1bm","","null","<span style=""font-size: 40px"">+</span>","null","","","","","","","","","",""
"","","","","","audio-button-response","71","303571","0.0-10.0-2.20","https://mcdermottlab.mit.edu/mturk_stimuli/bjmedina/mem_exp_atexts_2025/sequences/isi_16/len120/seq054_len120_s15_isi-1p0_0p0_16p0.json","11.07","true","mqsel2qj1bm","","2749","https://mcdermottlab.mit.edu/mturk_stimuli/bjmedina/mem_exp_atexts_2025/mem_stim_53.wav","2","main","","","false","mem_stim_53.wav","false","-1","","1","correct_rejection"
"","","","","","html-keyboard-response","72","303640","0.0-10.0-1.21","https://mcdermottlab.mit.edu/mturk_stimuli/bjmedina/mem_exp_atexts_2025/sequences/isi_16/len120/seq054_len120_s15_isi-1p0_0p0_16p0.json","11.07","true","mqsel2qj1bm","","null","<span style=""font-size: 40px"">+</span>","null","","","","","","","","","",""
"","","","","","audio-button-response","73","307450","0.0-10.0-2.21","https://mcdermottlab.mit.edu/mturk_stimuli/bjmedina/mem_exp_atexts_2025/sequences/isi_16/len120/seq054_len120_s15_isi-1p0_0p0_16p0.json","11.07","true","mqsel2qj1bm","","3808","https://mcdermottlab.mit.edu/mturk_stimuli/bjmedina/mem_exp_atexts_2025/mem_stim_37.wav","1","main","","","true","mem_stim_37.wav","false","16","","1","hit"
"","","","","","html-keyboard-response","74","307520","0.0-10.0-1.22","https://mcdermottlab.mit.edu/mturk_stimuli/bjmedina/mem_exp_atexts_2025/sequences/isi_16/len120/seq054_len120_s15_isi-1p0_0p0_16p0.json","11.07","true","mqsel2qj1bm","","null","<span style=""font-size: 40px"">+</span>","null","","","","","","","","","",""
"","","","","","audio-button-response","75","312309","0.0-10.0-2.22","https://mcdermottlab.mit.edu/mturk_stimuli/bjmedina/mem_exp_atexts_2025/sequences/isi_16/len120/seq054_len120_s15_isi-1p0_0p0_16p0.json","11.07","true","mqsel2qj1bm","","3941","https://mcdermottlab.mit.edu/mturk_stimuli/bjmedina/mem_exp_atexts_2025/mem_stim_4.wav","1","main","","","false","mem_stim_4.wav","false","-1","","0","false_alarm"
"","","","","","html-keyboard-response","76","312369","0.0-10.0-1.23","https://mcdermottlab.mit.edu/mturk_stimuli/bjmedina/mem_exp_atexts_2025/sequences/isi_16/len120/seq054_len120_s15_isi-1p0_0p0_16p0.json","11.07","true","mqsel2qj1bm","","null","<span style=""font-size: 40px"">+</span>","null","","","","","","","","","",""
"","","","","","audio-button-response","77","315900","0.0-10.0-2.23","https://mcdermottlab.mit.edu/mturk_stimuli/bjmedina/mem_exp_atexts_2025/sequences/isi_16/len120/seq054_len120_s15_isi-1p0_0p0_16p0.json","11.07","true","mqsel2qj1bm","","2749","https://mcdermottlab.mit.edu/mturk_stimuli/bjmedina/mem_exp_atexts_2025/mem_stim_35.wav","2","main","","","false","mem_stim_35.wav","false","-1","","1","correct_rejection"
"","","","","","html-keyboard-response","78","315958","0.0-10.0-1.24","https://mcdermottlab.mit.edu/mturk_stimuli/bjmedina/mem_exp_atexts_2025/sequences/isi_16/len120/seq054_len120_s15_isi-1p0_0p0_16p0.json","11.07","true","mqsel2qj1bm","","null","<span style=""font-size: 40px"">+</span>","null","","","","","","","","","",""
"","","","","","audio-button-response","79","319147","0.0-10.0-2.24","https://mcdermottlab.mit.edu/mturk_stimuli/bjmedina/mem_exp_atexts_2025/sequences/isi_16/len120/seq054_len120_s15_isi-1p0_0p0_16p0.json","11.07","true","mqsel2qj1bm","","2600","https://mcdermottlab.mit.edu/mturk_stimuli/bjmedina/mem_exp_atexts_2025/mem_stim_39.wav","3","main","","","false","mem_stim_39.wav","false","-1","","1","correct_rejection"
"","","","","","html-keyboard-response","80","319206","0.0-10.0-1.25","https://mcdermottlab.mit.edu/mturk_stimuli/bjmedina/mem_exp_atexts_2025/sequences/isi_16/len120/seq054_len120_s15_isi-1p0_0p0_16p0.json","11.07","true","mqsel2qj1bm","","null","<span style=""font-size: 40px"">+</span>","null","","","","","","","","","",""
"","","","","","audio-button-response","81","322978","0.0-10.0-2.25","https://mcdermottlab.mit.edu/mturk_stimuli/bjmedina/mem_exp_atexts_2025/sequences/isi_16/len120/seq054_len120_s15_isi-1p0_0p0_16p0.json","11.07","true","mqsel2qj1bm","","3120","https://mcdermottlab.mit.edu/mturk_stimuli/bjmedina/mem_exp_atexts_2025/mem_stim_77.wav","0","main","","","false","mem_stim_77.wav","false","-1","","1","correct_rejection"
"","","","","","html-keyboard-response","82","323033","0.0-10.0-1.26","https://mcdermottlab.mit.edu/mturk_stimuli/bjmedina/mem_exp_atexts_2025/sequences/isi_16/len120/seq054_len120_s15_isi-1p0_0p0_16p0.json","11.07","true","mqsel2qj1bm","","null","<span style=""font-size: 40px"">+</span>","null","","","","","","","","","",""
"","","","","","audio-button-response","83","326516","0.0-10.0-2.26","https://mcdermottlab.mit.edu/mturk_stimuli/bjmedina/mem_exp_atexts_2025/sequences/isi_16/len120/seq054_len120_s15_isi-1p0_0p0_16p0.json","11.07","true","mqsel2qj1bm","","2811","https://mcdermottlab.mit.edu/mturk_stimuli/bjmedina/mem_exp_atexts_2025/mem_stim_24.wav","2","main","","","false","mem_stim_24.wav","false","-1","","1","correct_rejection"
"","","","","","html-keyboard-response","84","326585","0.0-10.0-1.27","https://mcdermottlab.mit.edu/mturk_stimuli/bjmedina/mem_exp_atexts_2025/sequences/isi_16/len120/seq054_len120_s15_isi-1p0_0p0_16p0.json","11.07","true","mqsel2qj1bm","","null","<span style=""font-size: 40px"">+</span>","null","","","","","","","","","",""
"","","","","","audio-button-response","85","329190","0.0-10.0-2.27","https://mcdermottlab.mit.edu/mturk_stimuli/bjmedina/mem_exp_atexts_2025/sequences/isi_16/len120/seq054_len120_s15_isi-1p0_0p0_16p0.json","11.07","true","mqsel2qj1bm","","2611","https://mcdermottlab.mit.edu/mturk_stimuli/bjmedina/mem_exp_atexts_2025/mem_stim_26.wav","3","main","","","true","mem_stim_26.wav","false","16","","0","miss"
"","","","","","html-keyboard-response","86","329250","0.0-10.0-1.28","https://mcdermottlab.mit.edu/mturk_stimuli/bjmedina/mem_exp_atexts_2025/sequences/isi_16/len120/seq054_len120_s15_isi-1p0_0p0_16p0.json","11.07","true","mqsel2qj1bm","","null","<span style=""font-size: 40px"">+</span>","null","","","","","","","","","",""
"","","","","","audio-button-response","87","332365","0.0-10.0-2.28","https://mcdermottlab.mit.edu/mturk_stimuli/bjmedina/mem_exp_atexts_2025/sequences/isi_16/len120/seq054_len120_s15_isi-1p0_0p0_16p0.json","11.07","true","mqsel2qj1bm","","3112","https://mcdermottlab.mit.edu/mturk_stimuli/bjmedina/mem_exp_atexts_2025/mem_stim_29.wav","0","main","","","true","mem_stim_29.wav","false","16","","0","miss"
"","","","","","html-keyboard-response","88","332419","0.0-10.0-1.29","https://mcdermottlab.mit.edu/mturk_stimuli/bjmedina/mem_exp_atexts_2025/sequences/isi_16/len120/seq054_len120_s15_isi-1p0_0p0_16p0.json","11.07","true","mqsel2qj1bm","","null","<span style=""font-size: 40px"">+</span>","null","","","","","","","","","",""
"","","","","","audio-button-response","89","335637","0.0-10.0-2.29","https://mcdermottlab.mit.edu/mturk_stimuli/bjmedina/mem_exp_atexts_2025/sequences/isi_16/len120/seq054_len120_s15_isi-1p0_0p0_16p0.json","11.07","true","mqsel2qj1bm","","2552","https://mcdermottlab.mit.edu/mturk_stimuli/bjmedina/mem_exp_atexts_2025/mem_stim_51.wav","0","main","","","false","mem_stim_51.wav","false","-1","","1","correct_rejection"
"","","","","","html-keyboard-response","90","335696","0.0-10.0-1.30","https://mcdermottlab.mit.edu/mturk_stimuli/bjmedina/mem_exp_atexts_2025/sequences/isi_16/len120/seq054_len120_s15_isi-1p0_0p0_16p0.json","11.07","true","mqsel2qj1bm","","null","<span style=""font-size: 40px"">+</span>","null","","","","","","","","","",""
"","","","","","audio-button-response","91","338825","0.0-10.0-2.30","https://mcdermottlab.mit.edu/mturk_stimuli/bjmedina/mem_exp_atexts_2025/sequences/isi_16/len120/seq054_len120_s15_isi-1p0_0p0_16p0.json","11.07","true","mqsel2qj1bm","","2571","https://mcdermottlab.mit.edu/mturk_stimuli/bjmedina/mem_exp_atexts_2025/mem_stim_38.wav","3","main","","","false","mem_stim_38.wav","false","-1","","1","correct_rejection"
"","","","","","html-keyboard-response","92","338893","0.0-10.0-1.31","https://mcdermottlab.mit.edu/mturk_stimuli/bjmedina/mem_exp_atexts_2025/sequences/isi_16/len120/seq054_len120_s15_isi-1p0_0p0_16p0.json","11.07","true","mqsel2qj1bm","","null","<span style=""font-size: 40px"">+</span>","null","","","","","","","","","",""
"","","","","","audio-button-response","93","342357","0.0-10.0-2.31","https://mcdermottlab.mit.edu/mturk_stimuli/bjmedina/mem_exp_atexts_2025/sequences/isi_16/len120/seq054_len120_s15_isi-1p0_0p0_16p0.json","11.07","true","mqsel2qj1bm","","2491","https://mcdermottlab.mit.edu/mturk_stimuli/bjmedina/mem_exp_atexts_2025/mem_stim_2.wav","2","main","","","false","mem_stim_2.wav","false","-1","","1","correct_rejection"
"","","","","","html-keyboard-response","94","342422","0.0-10.0-1.32","https://mcdermottlab.mit.edu/mturk_stimuli/bjmedina/mem_exp_atexts_2025/sequences/isi_16/len120/seq054_len120_s15_isi-1p0_0p0_16p0.json","11.07","true","mqsel2qj1bm","","null","<span style=""font-size: 40px"">+</span>","null","","","","","","","","","",""
"","","","","","audio-button-response","95","345539","0.0-10.0-2.32","https://mcdermottlab.mit.edu/mturk_stimuli/bjmedina/mem_exp_atexts_2025/sequences/isi_16/len120/seq054_len120_s15_isi-1p0_0p0_16p0.json","11.07","true","mqsel2qj1bm","","2531","https://mcdermottlab.mit.edu/mturk_stimuli/bjmedina/mem_exp_atexts_2025/mem_stim_41.wav","2","main","","","false","mem_stim_41.wav","false","-1","","1","correct_rejection"
"","","","","","html-keyboard-response","96","345598","0.0-10.0-1.33","https://mcdermottlab.mit.edu/mturk_stimuli/bjmedina/mem_exp_atexts_2025/sequences/isi_16/len120/seq054_len120_s15_isi-1p0_0p0_16p0.json","11.07","true","mqsel2qj1bm","","null","<span style=""font-size: 40px"">+</span>","null","","","","","","","","","",""
"","","","","","audio-button-response","97","349502","0.0-10.0-2.33","https://mcdermottlab.mit.edu/mturk_stimuli/bjmedina/mem_exp_atexts_2025/sequences/isi_16/len120/seq054_len120_s15_isi-1p0_0p0_16p0.json","11.07","true","mqsel2qj1bm","","3251","https://mcdermottlab.mit.edu/mturk_stimuli/bjmedina/mem_exp_atexts_2025/mem_stim_48.wav","1","main","","","false","mem_stim_48.wav","false","-1","","0","false_alarm"
"","","","","","html-keyboard-response","98","349569","0.0-10.0-1.34","https://mcdermottlab.mit.edu/mturk_stimuli/bjmedina/mem_exp_atexts_2025/sequences/isi_16/len120/seq054_len120_s15_isi-1p0_0p0_16p0.json","11.07","true","mqsel2qj1bm","","null","<span style=""font-size: 40px"">+</span>","null","","","","","","","","","",""
"","","","","","audio-button-response","99","352768","0.0-10.0-2.34","https://mcdermottlab.mit.edu/mturk_stimuli/bjmedina/mem_exp_atexts_2025/sequences/isi_16/len120/seq054_len120_s15_isi-1p0_0p0_16p0.json","11.07","true","mqsel2qj1bm","","2539","https://mcdermottlab.mit.edu/mturk_stimuli/bjmedina/mem_exp_atexts_2025/mem_stim_16.wav","2","main","","","false","mem_stim_16.wav","false","-1","","1","correct_rejection"
"","","","","","html-keyboard-response","100","352838","0.0-10.0-1.35","https://mcdermottlab.mit.edu/mturk_stimuli/bjmedina/mem_exp_atexts_2025/sequences/isi_16/len120/seq054_len120_s15_isi-1p0_0p0_16p0.json","11.07","true","mqsel2qj1bm","","null","<span style=""font-size: 40px"">+</span>","null","","","","","","","","","",""
"","","","","","audio-button-response","101","355347","0.0-10.0-2.35","https://mcdermottlab.mit.edu/mturk_stimuli/bjmedina/mem_exp_atexts_2025/sequences/isi_16/len120/seq054_len120_s15_isi-1p0_0p0_16p0.json","11.07","true","mqsel2qj1bm","","2509","https://mcdermottlab.mit.edu/mturk_stimuli/bjmedina/mem_exp_atexts_2025/mem_stim_16.wav","3","main","","","true","mem_stim_16.wav","true","0","","0","miss"
"","","","","","html-keyboard-response","102","355405","0.0-10.0-1.36","https://mcdermottlab.mit.edu/mturk_stimuli/bjmedina/mem_exp_atexts_2025/sequences/isi_16/len120/seq054_len120_s15_isi-1p0_0p0_16p0.json","11.07","true","mqsel2qj1bm","","null","<span style=""font-size: 40px"">+</span>","null","","","","","","","","","",""
"","","","","","audio-button-response","103","357998","0.0-10.0-2.36","https://mcdermottlab.mit.edu/mturk_stimuli/bjmedina/mem_exp_atexts_2025/sequences/isi_16/len120/seq054_len120_s15_isi-1p0_0p0_16p0.json","11.07","true","mqsel2qj1bm","","2600","https://mcdermottlab.mit.edu/mturk_stimuli/bjmedina/mem_exp_atexts_2025/mem_stim_49.wav","3","main","","","true","mem_stim_49.wav","false","16","","0","miss"
"","","","","","html-keyboard-response","104","358053","0.0-10.0-1.37","https://mcdermottlab.mit.edu/mturk_stimuli/bjmedina/mem_exp_atexts_2025/sequences/isi_16/len120/seq054_len120_s15_isi-1p0_0p0_16p0.json","11.07","true","mqsel2qj1bm","","null","<span style=""font-size: 40px"">+</span>","null","","","","","","","","","",""
"","","","","","audio-button-response","105","361323","0.0-10.0-2.37","https://mcdermottlab.mit.edu/mturk_stimuli/bjmedina/mem_exp_atexts_2025/sequences/isi_16/len120/seq054_len120_s15_isi-1p0_0p0_16p0.json","11.07","true","mqsel2qj1bm","","2672","https://mcdermottlab.mit.edu/mturk_stimuli/bjmedina/mem_exp_atexts_2025/mem_stim_73.wav","3","main","","","false","mem_stim_73.wav","false","-1","","1","correct_rejection"
"","","","","","html-keyboard-response","106","361379","0.0-10.0-1.38","https://mcdermottlab.mit.edu/mturk_stimuli/bjmedina/mem_exp_atexts_2025/sequences/isi_16/len120/seq054_len120_s15_isi-1p0_0p0_16p0.json","11.07","true","mqsel2qj1bm","","null","<span style=""font-size: 40px"">+</span>","null","","","","","","","","","",""
"","","","","","audio-button-response","107","364773","0.0-10.0-2.38","https://mcdermottlab.mit.edu/mturk_stimuli/bjmedina/mem_exp_atexts_2025/sequences/isi_16/len120/seq054_len120_s15_isi-1p0_0p0_16p0.json","11.07","true","mqsel2qj1bm","","2720","https://mcdermottlab.mit.edu/mturk_stimuli/bjmedina/mem_exp_atexts_2025/mem_stim_0.wav","3","main","","","false","mem_stim_0.wav","false","-1","","1","correct_rejection"
"","","","","","html-keyboard-response","108","364831","0.0-10.0-1.39","https://mcdermottlab.mit.edu/mturk_stimuli/bjmedina/mem_exp_atexts_2025/sequences/isi_16/len120/seq054_len120_s15_isi-1p0_0p0_16p0.json","11.07","true","mqsel2qj1bm","","null","<span style=""font-size: 40px"">+</span>","null","","","","","","","","","",""
"","","","","","audio-button-response","109","368007","0.0-10.0-2.39","https://mcdermottlab.mit.edu/mturk_stimuli/bjmedina/mem_exp_atexts_2025/sequences/isi_16/len120/seq054_len120_s15_isi-1p0_0p0_16p0.json","11.07","true","mqsel2qj1bm","","2501","https://mcdermottlab.mit.edu/mturk_stimuli/bjmedina/mem_exp_atexts_2025/mem_stim_75.wav","0","main","","","false","mem_stim_75.wav","false","-1","","1","correct_rejection"
"","","","","","html-keyboard-response","110","368064","0.0-10.0-1.40","https://mcdermottlab.mit.edu/mturk_stimuli/bjmedina/mem_exp_atexts_2025/sequences/isi_16/len120/seq054_len120_s15_isi-1p0_0p0_16p0.json","11.07","true","mqsel2qj1bm","","null","<span style=""font-size: 40px"">+</span>","null","","","","","","","","","",""
"","","","","","audio-button-response","111","370579","0.0-10.0-2.40","https://mcdermottlab.mit.edu/mturk_stimuli/bjmedina/mem_exp_atexts_2025/sequences/isi_16/len120/seq054_len120_s15_isi-1p0_0p0_16p0.json","11.07","true","mqsel2qj1bm","","2520","https://mcdermottlab.mit.edu/mturk_stimuli/bjmedina/mem_exp_atexts_2025/mem_stim_35.wav","2","main","","","true","mem_stim_35.wav","false","16","","0","miss"
"","","","","","html-keyboard-response","112","370648","0.0-10.0-1.41","https://mcdermottlab.mit.edu/mturk_stimuli/bjmedina/mem_exp_atexts_2025/sequences/isi_16/len120/seq054_len120_s15_isi-1p0_0p0_16p0.json","11.07","true","mqsel2qj1bm","","null","<span style=""font-size: 40px"">+</span>","null","","","","","","","","","",""
"","","","","","audio-button-response","113","373270","0.0-10.0-2.41","https://mcdermottlab.mit.edu/mturk_stimuli/bjmedina/mem_exp_atexts_2025/sequences/isi_16/len120/seq054_len120_s15_isi-1p0_0p0_16p0.json","11.07","true","mqsel2qj1bm","","2621","https://mcdermottlab.mit.edu/mturk_stimuli/bjmedina/mem_exp_atexts_2025/mem_stim_39.wav","3","main","","","true","mem_stim_39.wav","false","16","","0","miss"
"","","","","","html-keyboard-response","114","373330","0.0-10.0-1.42","https://mcdermottlab.mit.edu/mturk_stimuli/bjmedina/mem_exp_atexts_2025/sequences/isi_16/len120/seq054_len120_s15_isi-1p0_0p0_16p0.json","11.07","true","mqsel2qj1bm","","null","<span style=""font-size: 40px"">+</span>","null","","","","","","","","","",""
"","","","","","audio-button-response","115","376488","0.0-10.0-2.42","https://mcdermottlab.mit.edu/mturk_stimuli/bjmedina/mem_exp_atexts_2025/sequences/isi_16/len120/seq054_len120_s15_isi-1p0_0p0_16p0.json","11.07","true","mqsel2qj1bm","","2499","https://mcdermottlab.mit.edu/mturk_stimuli/bjmedina/mem_exp_atexts_2025/mem_stim_21.wav","2","main","","","false","mem_stim_21.wav","false","-1","","1","correct_rejection"
"","","","","","html-keyboard-response","116","376548","0.0-10.0-1.43","https://mcdermottlab.mit.edu/mturk_stimuli/bjmedina/mem_exp_atexts_2025/sequences/isi_16/len120/seq054_len120_s15_isi-1p0_0p0_16p0.json","11.07","true","mqsel2qj1bm","","null","<span style=""font-size: 40px"">+</span>","null","","","","","","","","","",""
"","","","","","audio-button-response","117","380127","0.0-10.0-2.43","https://mcdermottlab.mit.edu/mturk_stimuli/bjmedina/mem_exp_atexts_2025/sequences/isi_16/len120/seq054_len120_s15_isi-1p0_0p0_16p0.json","11.07","true","mqsel2qj1bm","","3571","https://mcdermottlab.mit.edu/mturk_stimuli/bjmedina/mem_exp_atexts_2025/mem_stim_24.wav","2","main","","","true","mem_stim_24.wav","false","16","","0","miss"
"","","","","","html-keyboard-response","118","380192","0.0-10.0-1.44","https://mcdermottlab.mit.edu/mturk_stimuli/bjmedina/mem_exp_atexts_2025/sequences/isi_16/len120/seq054_len120_s15_isi-1p0_0p0_16p0.json","11.07","true","mqsel2qj1bm","","null","<span style=""font-size: 40px"">+</span>","null","","","","","","","","","",""
"","","","","","audio-button-response","119","383631","0.0-10.0-2.44","https://mcdermottlab.mit.edu/mturk_stimuli/bjmedina/mem_exp_atexts_2025/sequences/isi_16/len120/seq054_len120_s15_isi-1p0_0p0_16p0.json","11.07","true","mqsel2qj1bm","","2760","https://mcdermottlab.mit.edu/mturk_stimuli/bjmedina/mem_exp_atexts_2025/mem_stim_78.wav","0","main","","","false","mem_stim_78.wav","false","-1","","1","correct_rejection"
"","","","","","html-keyboard-response","120","383689","0.0-10.0-1.45","https://mcdermottlab.mit.edu/mturk_stimuli/bjmedina/mem_exp_atexts_2025/sequences/isi_16/len120/seq054_len120_s15_isi-1p0_0p0_16p0.json","11.07","true","mqsel2qj1bm","","null","<span style=""font-size: 40px"">+</span>","null","","","","","","","","","",""
"","","","","","audio-button-response","121","387224","0.0-10.0-2.45","https://mcdermottlab.mit.edu/mturk_stimuli/bjmedina/mem_exp_atexts_2025/sequences/isi_16/len120/seq054_len120_s15_isi-1p0_0p0_16p0.json","11.07","true","mqsel2qj1bm","","2931","https://mcdermottlab.mit.edu/mturk_stimuli/bjmedina/mem_exp_atexts_2025/mem_stim_25.wav","2","main","","","false","mem_stim_25.wav","false","-1","","1","correct_rejection"
"","","","","","html-keyboard-response","122","387287","0.0-10.0-1.46","https://mcdermottlab.mit.edu/mturk_stimuli/bjmedina/mem_exp_atexts_2025/sequences/isi_16/len120/seq054_len120_s15_isi-1p0_0p0_16p0.json","11.07","true","mqsel2qj1bm","","null","<span style=""font-size: 40px"">+</span>","null","","","","","","","","","",""
"","","","","","audio-button-response","123","390704","0.0-10.0-2.46","https://mcdermottlab.mit.edu/mturk_stimuli/bjmedina/mem_exp_atexts_2025/sequences/isi_16/len120/seq054_len120_s15_isi-1p0_0p0_16p0.json","11.07","true","mqsel2qj1bm","","2851","https://mcdermottlab.mit.edu/mturk_stimuli/bjmedina/mem_exp_atexts_2025/mem_stim_43.wav","2","main","","","false","mem_stim_43.wav","false","-1","","1","correct_rejection"
"","","","","","html-keyboard-response","124","390761","0.0-10.0-1.47","https://mcdermottlab.mit.edu/mturk_stimuli/bjmedina/mem_exp_atexts_2025/sequences/isi_16/len120/seq054_len120_s15_isi-1p0_0p0_16p0.json","11.07","true","mqsel2qj1bm","","null","<span style=""font-size: 40px"">+</span>","null","","","","","","","","","",""
"","","","","","audio-button-response","125","393384","0.0-10.0-2.47","https://mcdermottlab.mit.edu/mturk_stimuli/bjmedina/mem_exp_atexts_2025/sequences/isi_16/len120/seq054_len120_s15_isi-1p0_0p0_16p0.json","11.07","true","mqsel2qj1bm","","2619","https://mcdermottlab.mit.edu/mturk_stimuli/bjmedina/mem_exp_atexts_2025/mem_stim_38.wav","2","main","","","true","mem_stim_38.wav","false","16","","0","miss"
"","","","","","html-keyboard-response","126","393441","0.0-10.0-1.48","https://mcdermottlab.mit.edu/mturk_stimuli/bjmedina/mem_exp_atexts_2025/sequences/isi_16/len120/seq054_len120_s15_isi-1p0_0p0_16p0.json","11.07","true","mqsel2qj1bm","","null","<span style=""font-size: 40px"">+</span>","null","","","","","","","","","",""
"","","","","","audio-button-response","127","397321","0.0-10.0-2.48","https://mcdermottlab.mit.edu/mturk_stimuli/bjmedina/mem_exp_atexts_2025/sequences/isi_16/len120/seq054_len120_s15_isi-1p0_0p0_16p0.json","11.07","true","mqsel2qj1bm","","3032","https://mcdermottlab.mit.edu/mturk_stimuli/bjmedina/mem_exp_atexts_2025/mem_stim_47.wav","3","main","","","false","mem_stim_47.wav","false","-1","","1","correct_rejection"
"","","","","","html-keyboard-response","128","397382","0.0-10.0-1.49","https://mcdermottlab.mit.edu/mturk_stimuli/bjmedina/mem_exp_atexts_2025/sequences/isi_16/len120/seq054_len120_s15_isi-1p0_0p0_16p0.json","11.07","true","mqsel2qj1bm","","null","<span style=""font-size: 40px"">+</span>","null","","","","","","","","","",""
"","","","","","audio-button-response","129","399909","0.0-10.0-2.49","https://mcdermottlab.mit.edu/mturk_stimuli/bjmedina/mem_exp_atexts_2025/sequences/isi_16/len120/seq054_len120_s15_isi-1p0_0p0_16p0.json","11.07","true","mqsel2qj1bm","","2531","https://mcdermottlab.mit.edu/mturk_stimuli/bjmedina/mem_exp_atexts_2025/mem_stim_41.wav","2","main","","","true","mem_stim_41.wav","false","16","","0","miss"
"","","","","","html-keyboard-response","130","399968","0.0-10.0-1.50","https://mcdermottlab.mit.edu/mturk_stimuli/bjmedina/mem_exp_atexts_2025/sequences/isi_16/len120/seq054_len120_s15_isi-1p0_0p0_16p0.json","11.07","true","mqsel2qj1bm","","null","<span style=""font-size: 40px"">+</span>","null","","","","","","","","","",""
"","","","","","audio-button-response","131","402760","0.0-10.0-2.50","https://mcdermottlab.mit.edu/mturk_stimuli/bjmedina/mem_exp_atexts_2025/sequences/isi_16/len120/seq054_len120_s15_isi-1p0_0p0_16p0.json","11.07","true","mqsel2qj1bm","","2792","https://mcdermottlab.mit.edu/mturk_stimuli/bjmedina/mem_exp_atexts_2025/mem_stim_48.wav","1","main","","","true","mem_stim_48.wav","false","16","","1","hit"
"","","","","","html-keyboard-response","132","402817","0.0-10.0-1.51","https://mcdermottlab.mit.edu/mturk_stimuli/bjmedina/mem_exp_atexts_2025/sequences/isi_16/len120/seq054_len120_s15_isi-1p0_0p0_16p0.json","11.07","true","mqsel2qj1bm","","null","<span style=""font-size: 40px"">+</span>","null","","","","","","","","","",""
"","","","","","audio-button-response","133","406581","0.0-10.0-2.51","https://mcdermottlab.mit.edu/mturk_stimuli/bjmedina/mem_exp_atexts_2025/sequences/isi_16/len120/seq054_len120_s15_isi-1p0_0p0_16p0.json","11.07","true","mqsel2qj1bm","","2899","https://mcdermottlab.mit.edu/mturk_stimuli/bjmedina/mem_exp_atexts_2025/mem_stim_40.wav","1","main","","","false","mem_stim_40.wav","false","-1","","0","false_alarm"
"","","","","","html-keyboard-response","134","406638","0.0-10.0-1.52","https://mcdermottlab.mit.edu/mturk_stimuli/bjmedina/mem_exp_atexts_2025/sequences/isi_16/len120/seq054_len120_s15_isi-1p0_0p0_16p0.json","11.07","true","mqsel2qj1bm","","null","<span style=""font-size: 40px"">+</span>","null","","","","","","","","","",""
"","","","","","audio-button-response","135","409858","0.0-10.0-2.52","https://mcdermottlab.mit.edu/mturk_stimuli/bjmedina/mem_exp_atexts_2025/sequences/isi_16/len120/seq054_len120_s15_isi-1p0_0p0_16p0.json","11.07","true","mqsel2qj1bm","","2560","https://mcdermottlab.mit.edu/mturk_stimuli/bjmedina/mem_exp_atexts_2025/mem_stim_33.wav","2","main","","","false","mem_stim_33.wav","false","-1","","1","correct_rejection"
"","","","","","html-keyboard-response","136","409916","0.0-10.0-1.53","https://mcdermottlab.mit.edu/mturk_stimuli/bjmedina/mem_exp_atexts_2025/sequences/isi_16/len120/seq054_len120_s15_isi-1p0_0p0_16p0.json","11.07","true","mqsel2qj1bm","","null","<span style=""font-size: 40px"">+</span>","null","","","","","","","","","",""
"","","","","","audio-button-response","137","412973","0.0-10.0-2.53","https://mcdermottlab.mit.edu/mturk_stimuli/bjmedina/mem_exp_atexts_2025/sequences/isi_16/len120/seq054_len120_s15_isi-1p0_0p0_16p0.json","11.07","true","mqsel2qj1bm","","2579","https://mcdermottlab.mit.edu/mturk_stimuli/bjmedina/mem_exp_atexts_2025/mem_stim_60.wav","3","main","","","false","mem_stim_60.wav","false","-1","","1","correct_rejection"
"","","","","","html-keyboard-response","138","413030","0.0-10.0-1.54","https://mcdermottlab.mit.edu/mturk_stimuli/bjmedina/mem_exp_atexts_2025/sequences/isi_16/len120/seq054_len120_s15_isi-1p0_0p0_16p0.json","11.07","true","mqsel2qj1bm","","null","<span style=""font-size: 40px"">+</span>","null","","","","","","","","","",""
"","","","","","audio-button-response","139","416574","0.0-10.0-2.54","https://mcdermottlab.mit.edu/mturk_stimuli/bjmedina/mem_exp_atexts_2025/sequences/isi_16/len120/seq054_len120_s15_isi-1p0_0p0_16p0.json","11.07","true","mqsel2qj1bm","","2960","https://mcdermottlab.mit.edu/mturk_stimuli/bjmedina/mem_exp_atexts_2025/mem_stim_27.wav","0","main","","","false","mem_stim_27.wav","false","-1","","1","correct_rejection"
"","","","","","html-keyboard-response","140","416636","0.0-10.0-1.55","https://mcdermottlab.mit.edu/mturk_stimuli/bjmedina/mem_exp_atexts_2025/sequences/isi_16/len120/seq054_len120_s15_isi-1p0_0p0_16p0.json","11.07","true","mqsel2qj1bm","","null","<span style=""font-size: 40px"">+</span>","null","","","","","","","","","",""
"","","","","","audio-button-response","141","419870","0.0-10.0-2.55","https://mcdermottlab.mit.edu/mturk_stimuli/bjmedina/mem_exp_atexts_2025/sequences/isi_16/len120/seq054_len120_s15_isi-1p0_0p0_16p0.json","11.07","true","mqsel2qj1bm","","2571","https://mcdermottlab.mit.edu/mturk_stimuli/bjmedina/mem_exp_atexts_2025/mem_stim_1.wav","2","main","","","false","mem_stim_1.wav","false","-1","","1","correct_rejection"
"","","","","","html-keyboard-response","142","419928","0.0-10.0-1.56","https://mcdermottlab.mit.edu/mturk_stimuli/bjmedina/mem_exp_atexts_2025/sequences/isi_16/len120/seq054_len120_s15_isi-1p0_0p0_16p0.json","11.07","true","mqsel2qj1bm","","null","<span style=""font-size: 40px"">+</span>","null","","","","","","","","","",""
"","","","","","audio-button-response","143","423238","0.0-10.0-2.56","https://mcdermottlab.mit.edu/mturk_stimuli/bjmedina/mem_exp_atexts_2025/sequences/isi_16/len120/seq054_len120_s15_isi-1p0_0p0_16p0.json","11.07","true","mqsel2qj1bm","","2560","https://mcdermottlab.mit.edu/mturk_stimuli/bjmedina/mem_exp_atexts_2025/mem_stim_76.wav","0","main","","","false","mem_stim_76.wav","false","-1","","1","correct_rejection"
"","","","","","html-keyboard-response","144","423299","0.0-10.0-1.57","https://mcdermottlab.mit.edu/mturk_stimuli/bjmedina/mem_exp_atexts_2025/sequences/isi_16/len120/seq054_len120_s15_isi-1p0_0p0_16p0.json","11.07","true","mqsel2qj1bm","","null","<span style=""font-size: 40px"">+</span>","null","","","","","","","","","",""
"","","","","","audio-button-response","145","426391","0.0-10.0-2.57","https://mcdermottlab.mit.edu/mturk_stimuli/bjmedina/mem_exp_atexts_2025/sequences/isi_16/len120/seq054_len120_s15_isi-1p0_0p0_16p0.json","11.07","true","mqsel2qj1bm","","2501","https://mcdermottlab.mit.edu/mturk_stimuli/bjmedina/mem_exp_atexts_2025/mem_stim_12.wav","2","main","","","false","mem_stim_12.wav","false","-1","","1","correct_rejection"
"","","","","","html-keyboard-response","146","426454","0.0-10.0-1.58","https://mcdermottlab.mit.edu/mturk_stimuli/bjmedina/mem_exp_atexts_2025/sequences/isi_16/len120/seq054_len120_s15_isi-1p0_0p0_16p0.json","11.07","true","mqsel2qj1bm","","null","<span style=""font-size: 40px"">+</span>","null","","","","","","","","","",""
"","","","","","audio-button-response","147","428975","0.0-10.0-2.58","https://mcdermottlab.mit.edu/mturk_stimuli/bjmedina/mem_exp_atexts_2025/sequences/isi_16/len120/seq054_len120_s15_isi-1p0_0p0_16p0.json","11.07","true","mqsel2qj1bm","","2520","https://mcdermottlab.mit.edu/mturk_stimuli/bjmedina/mem_exp_atexts_2025/mem_stim_12.wav","3","main","","","true","mem_stim_12.wav","true","0","","0","miss"
"","","","","","html-keyboard-response","148","429041","0.0-10.0-1.59","https://mcdermottlab.mit.edu/mturk_stimuli/bjmedina/mem_exp_atexts_2025/sequences/isi_16/len120/seq054_len120_s15_isi-1p0_0p0_16p0.json","11.07","true","mqsel2qj1bm","","null","<span style=""font-size: 40px"">+</span>","null","","","","","","","","","",""
"","","","","","audio-button-response","149","431561","0.0-10.0-2.59","https://mcdermottlab.mit.edu/mturk_stimuli/bjmedina/mem_exp_atexts_2025/sequences/isi_16/len120/seq054_len120_s15_isi-1p0_0p0_16p0.json","11.07","true","mqsel2qj1bm","","2520","https://mcdermottlab.mit.edu/mturk_stimuli/bjmedina/mem_exp_atexts_2025/mem_stim_21.wav","3","main","","","true","mem_stim_21.wav","false","16","","0","miss"
"","","","","","html-keyboard-response","150","431627","0.0-10.0-1.60","https://mcdermottlab.mit.edu/mturk_stimuli/bjmedina/mem_exp_atexts_2025/sequences/isi_16/len120/seq054_len120_s15_isi-1p0_0p0_16p0.json","11.07","true","mqsel2qj1bm","","null","<span style=""font-size: 40px"">+</span>","null","","","","","","","","","",""
"","","","","","audio-button-response","151","434852","0.0-10.0-2.60","https://mcdermottlab.mit.edu/mturk_stimuli/bjmedina/mem_exp_atexts_2025/sequences/isi_16/len120/seq054_len120_s15_isi-1p0_0p0_16p0.json","11.07","true","mqsel2qj1bm","","2509","https://mcdermottlab.mit.edu/mturk_stimuli/bjmedina/mem_exp_atexts_2025/mem_stim_45.wav","0","main","","","false","mem_stim_45.wav","false","-1","","1","correct_rejection"
"","","","","","html-keyboard-response","152","434924","0.0-10.0-1.61","https://mcdermottlab.mit.edu/mturk_stimuli/bjmedina/mem_exp_atexts_2025/sequences/isi_16/len120/seq054_len120_s15_isi-1p0_0p0_16p0.json","11.07","true","mqsel2qj1bm","","null","<span style=""font-size: 40px"">+</span>","null","","","","","","","","","",""
"","","","","","audio-button-response","153","438091","0.0-10.0-2.61","https://mcdermottlab.mit.edu/mturk_stimuli/bjmedina/mem_exp_atexts_2025/sequences/isi_16/len120/seq054_len120_s15_isi-1p0_0p0_16p0.json","11.07","true","mqsel2qj1bm","","2579","https://mcdermottlab.mit.edu/mturk_stimuli/bjmedina/mem_exp_atexts_2025/mem_stim_8.wav","2","main","","","false","mem_stim_8.wav","false","-1","","1","correct_rejection"
"","","","","","html-keyboard-response","154","438158","0.0-10.0-1.62","https://mcdermottlab.mit.edu/mturk_stimuli/bjmedina/mem_exp_atexts_2025/sequences/isi_16/len120/seq054_len120_s15_isi-1p0_0p0_16p0.json","11.07","true","mqsel2qj1bm","","null","<span style=""font-size: 40px"">+</span>","null","","","","","","","","","",""
"","","","","","audio-button-response","155","440690","0.0-10.0-2.62","https://mcdermottlab.mit.edu/mturk_stimuli/bjmedina/mem_exp_atexts_2025/sequences/isi_16/len120/seq054_len120_s15_isi-1p0_0p0_16p0.json","11.07","true","mqsel2qj1bm","","2528","https://mcdermottlab.mit.edu/mturk_stimuli/bjmedina/mem_exp_atexts_2025/mem_stim_25.wav","2","main","","","true","mem_stim_25.wav","false","16","","0","miss"
"","","","","","html-keyboard-response","156","440758","0.0-10.0-1.63","https://mcdermottlab.mit.edu/mturk_stimuli/bjmedina/mem_exp_atexts_2025/sequences/isi_16/len120/seq054_len120_s15_isi-1p0_0p0_16p0.json","11.07","true","mqsel2qj1bm","","null","<span style=""font-size: 40px"">+</span>","null","","","","","","","","","",""
"","","","","","audio-button-response","157","443304","0.0-10.0-2.63","https://mcdermottlab.mit.edu/mturk_stimuli/bjmedina/mem_exp_atexts_2025/sequences/isi_16/len120/seq054_len120_s15_isi-1p0_0p0_16p0.json","11.07","true","mqsel2qj1bm","","2539","https://mcdermottlab.mit.edu/mturk_stimuli/bjmedina/mem_exp_atexts_2025/mem_stim_43.wav","3","main","","","true","mem_stim_43.wav","false","16","","0","miss"
"","","","","","html-keyboard-response","158","443374","0.0-10.0-1.64","https://mcdermottlab.mit.edu/mturk_stimuli/bjmedina/mem_exp_atexts_2025/sequences/isi_16/len120/seq054_len120_s15_isi-1p0_0p0_16p0.json","11.07","true","mqsel2qj1bm","","null","<span style=""font-size: 40px"">+</span>","null","","","","","","","","","",""
"","","","","","audio-button-response","159","446734","0.0-10.0-2.64","https://mcdermottlab.mit.edu/mturk_stimuli/bjmedina/mem_exp_atexts_2025/sequences/isi_16/len120/seq054_len120_s15_isi-1p0_0p0_16p0.json","11.07","true","mqsel2qj1bm","","2779","https://mcdermottlab.mit.edu/mturk_stimuli/bjmedina/mem_exp_atexts_2025/mem_stim_74.wav","2","main","","","false","mem_stim_74.wav","false","-1","","1","correct_rejection"
"","","","","","html-keyboard-response","160","446805","0.0-10.0-1.65","https://mcdermottlab.mit.edu/mturk_stimuli/bjmedina/mem_exp_atexts_2025/sequences/isi_16/len120/seq054_len120_s15_isi-1p0_0p0_16p0.json","11.07","true","mqsel2qj1bm","","null","<span style=""font-size: 40px"">+</span>","null","","","","","","","","","",""
"","","","","","audio-button-response","161","449338","0.0-10.0-2.65","https://mcdermottlab.mit.edu/mturk_stimuli/bjmedina/mem_exp_atexts_2025/sequences/isi_16/len120/seq054_len120_s15_isi-1p0_0p0_16p0.json","11.07","true","mqsel2qj1bm","","2539","https://mcdermottlab.mit.edu/mturk_stimuli/bjmedina/mem_exp_atexts_2025/mem_stim_47.wav","3","main","","","true","mem_stim_47.wav","false","16","","0","miss"
"","","","","","html-keyboard-response","162","449408","0.0-10.0-1.66","https://mcdermottlab.mit.edu/mturk_stimuli/bjmedina/mem_exp_atexts_2025/sequences/isi_16/len120/seq054_len120_s15_isi-1p0_0p0_16p0.json","11.07","true","mqsel2qj1bm","","null","<span style=""font-size: 40px"">+</span>","null","","","","","","","","","",""
"","","","","","audio-button-response","163","452864","0.0-10.0-2.66","https://mcdermottlab.mit.edu/mturk_stimuli/bjmedina/mem_exp_atexts_2025/sequences/isi_16/len120/seq054_len120_s15_isi-1p0_0p0_16p0.json","11.07","true","mqsel2qj1bm","","2571","https://mcdermottlab.mit.edu/mturk_stimuli/bjmedina/mem_exp_atexts_2025/mem_stim_20.wav","0","main","","","false","mem_stim_20.wav","false","-1","","1","correct_rejection"
"","","","","","html-keyboard-response","164","452935","0.0-10.0-1.67","https://mcdermottlab.mit.edu/mturk_stimuli/bjmedina/mem_exp_atexts_2025/sequences/isi_16/len120/seq054_len120_s15_isi-1p0_0p0_16p0.json","11.07","true","mqsel2qj1bm","","null","<span style=""font-size: 40px"">+</span>","null","","","","","","","","","",""
"","","","","","audio-button-response","165","457323","0.0-10.0-2.67","https://mcdermottlab.mit.edu/mturk_stimuli/bjmedina/mem_exp_atexts_2025/sequences/isi_16/len120/seq054_len120_s15_isi-1p0_0p0_16p0.json","11.07","true","mqsel2qj1bm","","3640","https://mcdermottlab.mit.edu/mturk_stimuli/bjmedina/mem_exp_atexts_2025/mem_stim_46.wav","2","main","","","false","mem_stim_46.wav","false","-1","","1","correct_rejection"
"","","","","","html-keyboard-response","166","457381","0.0-10.0-1.68","https://mcdermottlab.mit.edu/mturk_stimuli/bjmedina/mem_exp_atexts_2025/sequences/isi_16/len120/seq054_len120_s15_isi-1p0_0p0_16p0.json","11.07","true","mqsel2qj1bm","","null","<span style=""font-size: 40px"">+</span>","null","","","","","","","","","",""
"","","","","","audio-button-response","167","460480","0.0-10.0-2.68","https://mcdermottlab.mit.edu/mturk_stimuli/bjmedina/mem_exp_atexts_2025/sequences/isi_16/len120/seq054_len120_s15_isi-1p0_0p0_16p0.json","11.07","true","mqsel2qj1bm","","3101","https://mcdermottlab.mit.edu/mturk_stimuli/bjmedina/mem_exp_atexts_2025/mem_stim_40.wav","3","main","","","true","mem_stim_40.wav","false","16","","0","miss"
"","","","","","html-keyboard-response","168","460536","0.0-10.0-1.69","https://mcdermottlab.mit.edu/mturk_stimuli/bjmedina/mem_exp_atexts_2025/sequences/isi_16/len120/seq054_len120_s15_isi-1p0_0p0_16p0.json","11.07","true","mqsel2qj1bm","","null","<span style=""font-size: 40px"">+</span>","null","","","","","","","","","",""
"","","","","","audio-button-response","169","463712","0.0-10.0-2.69","https://mcdermottlab.mit.edu/mturk_stimuli/bjmedina/mem_exp_atexts_2025/sequences/isi_16/len120/seq054_len120_s15_isi-1p0_0p0_16p0.json","11.07","true","mqsel2qj1bm","","3181","https://mcdermottlab.mit.edu/mturk_stimuli/bjmedina/mem_exp_atexts_2025/mem_stim_33.wav","1","main","","","true","mem_stim_33.wav","false","16","","1","hit"
"","","","","","html-keyboard-response","170","463770","0.0-10.0-1.70","https://mcdermottlab.mit.edu/mturk_stimuli/bjmedina/mem_exp_atexts_2025/sequences/isi_16/len120/seq054_len120_s15_isi-1p0_0p0_16p0.json","11.07","true","mqsel2qj1bm","","null","<span style=""font-size: 40px"">+</span>","null","","","","","","","","","",""
"","","","","","audio-button-response","171","466996","0.0-10.0-2.70","https://mcdermottlab.mit.edu/mturk_stimuli/bjmedina/mem_exp_atexts_2025/sequences/isi_16/len120/seq054_len120_s15_isi-1p0_0p0_16p0.json","11.07","true","mqsel2qj1bm","","2560","https://mcdermottlab.mit.edu/mturk_stimuli/bjmedina/mem_exp_atexts_2025/mem_stim_3.wav","0","main","","","false","mem_stim_3.wav","false","-1","","1","correct_rejection"
"","","","","","html-keyboard-response","172","467052","0.0-10.0-1.71","https://mcdermottlab.mit.edu/mturk_stimuli/bjmedina/mem_exp_atexts_2025/sequences/isi_16/len120/seq054_len120_s15_isi-1p0_0p0_16p0.json","11.07","true","mqsel2qj1bm","","null","<span style=""font-size: 40px"">+</span>","null","","","","","","","","","",""
"","","","","","audio-button-response","173","469703","0.0-10.0-2.71","https://mcdermottlab.mit.edu/mturk_stimuli/bjmedina/mem_exp_atexts_2025/sequences/isi_16/len120/seq054_len120_s15_isi-1p0_0p0_16p0.json","11.07","true","mqsel2qj1bm","","2651","https://mcdermottlab.mit.edu/mturk_stimuli/bjmedina/mem_exp_atexts_2025/mem_stim_27.wav","3","main","","","true","mem_stim_27.wav","false","16","","0","miss"
"","","","","","html-keyboard-response","174","469762","0.0-10.0-1.72","https://mcdermottlab.mit.edu/mturk_stimuli/bjmedina/mem_exp_atexts_2025/sequences/isi_16/len120/seq054_len120_s15_isi-1p0_0p0_16p0.json","11.07","true","mqsel2qj1bm","","null","<span style=""font-size: 40px"">+</span>","null","","","","","","","","","",""
"","","","","","audio-button-response","175","472763","0.0-10.0-2.72","https://mcdermottlab.mit.edu/mturk_stimuli/bjmedina/mem_exp_atexts_2025/sequences/isi_16/len120/seq054_len120_s15_isi-1p0_0p0_16p0.json","11.07","true","mqsel2qj1bm","","2512","https://mcdermottlab.mit.edu/mturk_stimuli/bjmedina/mem_exp_atexts_2025/mem_stim_6.wav","3","main","","","false","mem_stim_6.wav","false","-1","","1","correct_rejection"
"","","","","","html-keyboard-response","176","472822","0.0-10.0-1.73","https://mcdermottlab.mit.edu/mturk_stimuli/bjmedina/mem_exp_atexts_2025/sequences/isi_16/len120/seq054_len120_s15_isi-1p0_0p0_16p0.json","11.07","true","mqsel2qj1bm","","null","<span style=""font-size: 40px"">+</span>","null","","","","","","","","","",""
"","","","","","audio-button-response","177","476053","0.0-10.0-2.73","https://mcdermottlab.mit.edu/mturk_stimuli/bjmedina/mem_exp_atexts_2025/sequences/isi_16/len120/seq054_len120_s15_isi-1p0_0p0_16p0.json","11.07","true","mqsel2qj1bm","","2539","https://mcdermottlab.mit.edu/mturk_stimuli/bjmedina/mem_exp_atexts_2025/mem_stim_59.wav","3","main","","","false","mem_stim_59.wav","false","-1","","1","correct_rejection"
"","","","","","html-keyboard-response","178","476117","0.0-10.0-1.74","https://mcdermottlab.mit.edu/mturk_stimuli/bjmedina/mem_exp_atexts_2025/sequences/isi_16/len120/seq054_len120_s15_isi-1p0_0p0_16p0.json","11.07","true","mqsel2qj1bm","","null","<span style=""font-size: 40px"">+</span>","null","","","","","","","","","",""
"","","","","","audio-button-response","179","479319","0.0-10.0-2.74","https://mcdermottlab.mit.edu/mturk_stimuli/bjmedina/mem_exp_atexts_2025/sequences/isi_16/len120/seq054_len120_s15_isi-1p0_0p0_16p0.json","11.07","true","mqsel2qj1bm","","2531","https://mcdermottlab.mit.edu/mturk_stimuli/bjmedina/mem_exp_atexts_2025/mem_stim_34.wav","3","main","","","false","mem_stim_34.wav","false","-1","","1","correct_rejection"
"","","","","","html-keyboard-response","180","479384","0.0-10.0-1.75","https://mcdermottlab.mit.edu/mturk_stimuli/bjmedina/mem_exp_atexts_2025/sequences/isi_16/len120/seq054_len120_s15_isi-1p0_0p0_16p0.json","11.07","true","mqsel2qj1bm","","null","<span style=""font-size: 40px"">+</span>","null","","","","","","","","","",""
"","","","","","audio-button-response","181","483788","0.0-10.0-2.75","https://mcdermottlab.mit.edu/mturk_stimuli/bjmedina/mem_exp_atexts_2025/sequences/isi_16/len120/seq054_len120_s15_isi-1p0_0p0_16p0.json","11.07","true","mqsel2qj1bm","","3909","https://mcdermottlab.mit.edu/mturk_stimuli/bjmedina/mem_exp_atexts_2025/mem_stim_52.wav","1","main","","","false","mem_stim_52.wav","false","-1","","0","false_alarm"
"","","","","","html-keyboard-response","182","483855","0.0-10.0-1.76","https://mcdermottlab.mit.edu/mturk_stimuli/bjmedina/mem_exp_atexts_2025/sequences/isi_16/len120/seq054_len120_s15_isi-1p0_0p0_16p0.json","11.07","true","mqsel2qj1bm","","null","<span style=""font-size: 40px"">+</span>","null","","","","","","","","","",""
"","","","","","audio-button-response","183","487047","0.0-10.0-2.76","https://mcdermottlab.mit.edu/mturk_stimuli/bjmedina/mem_exp_atexts_2025/sequences/isi_16/len120/seq054_len120_s15_isi-1p0_0p0_16p0.json","11.07","true","mqsel2qj1bm","","2520","https://mcdermottlab.mit.edu/mturk_stimuli/bjmedina/mem_exp_atexts_2025/mem_stim_36.wav","3","main","","","false","mem_stim_36.wav","false","-1","","1","correct_rejection"
"","","","","","html-keyboard-response","184","487117","0.0-10.0-1.77","https://mcdermottlab.mit.edu/mturk_stimuli/bjmedina/mem_exp_atexts_2025/sequences/isi_16/len120/seq054_len120_s15_isi-1p0_0p0_16p0.json","11.07","true","mqsel2qj1bm","","null","<span style=""font-size: 40px"">+</span>","null","","","","","","","","","",""
"","","","","","audio-button-response","185","489662","0.0-10.0-2.77","https://mcdermottlab.mit.edu/mturk_stimuli/bjmedina/mem_exp_atexts_2025/sequences/isi_16/len120/seq054_len120_s15_isi-1p0_0p0_16p0.json","11.07","true","mqsel2qj1bm","","2549","https://mcdermottlab.mit.edu/mturk_stimuli/bjmedina/mem_exp_atexts_2025/mem_stim_45.wav","3","main","","","true","mem_stim_45.wav","false","16","","0","miss"
"","","","","","html-keyboard-response","186","489732","0.0-10.0-1.78","https://mcdermottlab.mit.edu/mturk_stimuli/bjmedina/mem_exp_atexts_2025/sequences/isi_16/len120/seq054_len120_s15_isi-1p0_0p0_16p0.json","11.07","true","mqsel2qj1bm","","null","<span style=""font-size: 40px"">+</span>","null","","","","","","","","","",""
"","","","","","audio-button-response","187","492945","0.0-10.0-2.78","https://mcdermottlab.mit.edu/mturk_stimuli/bjmedina/mem_exp_atexts_2025/sequences/isi_16/len120/seq054_len120_s15_isi-1p0_0p0_16p0.json","11.07","true","mqsel2qj1bm","","2549","https://mcdermottlab.mit.edu/mturk_stimuli/bjmedina/mem_exp_atexts_2025/mem_stim_31.wav","3","main","","","false","mem_stim_31.wav","false","-1","","1","correct_rejection"
"","","","","","html-keyboard-response","188","493013","0.0-10.0-1.79","https://mcdermottlab.mit.edu/mturk_stimuli/bjmedina/mem_exp_atexts_2025/sequences/isi_16/len120/seq054_len120_s15_isi-1p0_0p0_16p0.json","11.07","true","mqsel2qj1bm","","null","<span style=""font-size: 40px"">+</span>","null","","","","","","","","","",""
"","","","","","audio-button-response","189","496107","0.0-10.0-2.79","https://mcdermottlab.mit.edu/mturk_stimuli/bjmedina/mem_exp_atexts_2025/sequences/isi_16/len120/seq054_len120_s15_isi-1p0_0p0_16p0.json","11.07","true","mqsel2qj1bm","","2509","https://mcdermottlab.mit.edu/mturk_stimuli/bjmedina/mem_exp_atexts_2025/mem_stim_72.wav","3","main","","","false","mem_stim_72.wav","false","-1","","1","correct_rejection"
"","","","","","html-keyboard-response","190","496180","0.0-10.0-1.80","https://mcdermottlab.mit.edu/mturk_stimuli/bjmedina/mem_exp_atexts_2025/sequences/isi_16/len120/seq054_len120_s15_isi-1p0_0p0_16p0.json","11.07","true","mqsel2qj1bm","","null","<span style=""font-size: 40px"">+</span>","null","","","","","","","","","",""
"","","","","","audio-button-response","191","499395","0.0-10.0-2.80","https://mcdermottlab.mit.edu/mturk_stimuli/bjmedina/mem_exp_atexts_2025/sequences/isi_16/len120/seq054_len120_s15_isi-1p0_0p0_16p0.json","11.07","true","mqsel2qj1bm","","2520","https://mcdermottlab.mit.edu/mturk_stimuli/bjmedina/mem_exp_atexts_2025/mem_stim_44.wav","3","main","","","false","mem_stim_44.wav","false","-1","","1","correct_rejection"
"","","","","","html-keyboard-response","192","499461","0.0-10.0-1.81","https://mcdermottlab.mit.edu/mturk_stimuli/bjmedina/mem_exp_atexts_2025/sequences/isi_16/len120/seq054_len120_s15_isi-1p0_0p0_16p0.json","11.07","true","mqsel2qj1bm","","null","<span style=""font-size: 40px"">+</span>","null","","","","","","","","","",""
"","","","","","audio-button-response","193","502696","0.0-10.0-2.81","https://mcdermottlab.mit.edu/mturk_stimuli/bjmedina/mem_exp_atexts_2025/sequences/isi_16/len120/seq054_len120_s15_isi-1p0_0p0_16p0.json","11.07","true","mqsel2qj1bm","","2560","https://mcdermottlab.mit.edu/mturk_stimuli/bjmedina/mem_exp_atexts_2025/mem_stim_28.wav","3","main","","","false","mem_stim_28.wav","false","-1","","1","correct_rejection"
"","","","","","html-keyboard-response","194","502768","0.0-10.0-1.82","https://mcdermottlab.mit.edu/mturk_stimuli/bjmedina/mem_exp_atexts_2025/sequences/isi_16/len120/seq054_len120_s15_isi-1p0_0p0_16p0.json","11.07","true","mqsel2qj1bm","","null","<span style=""font-size: 40px"">+</span>","null","","","","","","","","","",""
"","","","","","audio-button-response","195","506191","0.0-10.0-2.82","https://mcdermottlab.mit.edu/mturk_stimuli/bjmedina/mem_exp_atexts_2025/sequences/isi_16/len120/seq054_len120_s15_isi-1p0_0p0_16p0.json","11.07","true","mqsel2qj1bm","","2749","https://mcdermottlab.mit.edu/mturk_stimuli/bjmedina/mem_exp_atexts_2025/mem_stim_30.wav","0","main","","","false","mem_stim_30.wav","false","-1","","1","correct_rejection"
"","","","","","html-keyboard-response","196","506263","0.0-10.0-1.83","https://mcdermottlab.mit.edu/mturk_stimuli/bjmedina/mem_exp_atexts_2025/sequences/isi_16/len120/seq054_len120_s15_isi-1p0_0p0_16p0.json","11.07","true","mqsel2qj1bm","","null","<span style=""font-size: 40px"">+</span>","null","","","","","","","","","",""
"","","","","","audio-button-response","197","508781","0.0-10.0-2.83","https://mcdermottlab.mit.edu/mturk_stimuli/bjmedina/mem_exp_atexts_2025/sequences/isi_16/len120/seq054_len120_s15_isi-1p0_0p0_16p0.json","11.07","true","mqsel2qj1bm","","2520","https://mcdermottlab.mit.edu/mturk_stimuli/bjmedina/mem_exp_atexts_2025/mem_stim_20.wav","2","main","","","true","mem_stim_20.wav","false","16","","0","miss"
"","","","","","html-keyboard-response","198","508849","0.0-10.0-1.84","https://mcdermottlab.mit.edu/mturk_stimuli/bjmedina/mem_exp_atexts_2025/sequences/isi_16/len120/seq054_len120_s15_isi-1p0_0p0_16p0.json","11.07","true","mqsel2qj1bm","","null","<span style=""font-size: 40px"">+</span>","null","","","","","","","","","",""
"","","","","","audio-button-response","199","511388","0.0-10.0-2.84","https://mcdermottlab.mit.edu/mturk_stimuli/bjmedina/mem_exp_atexts_2025/sequences/isi_16/len120/seq054_len120_s15_isi-1p0_0p0_16p0.json","11.07","true","mqsel2qj1bm","","2531","https://mcdermottlab.mit.edu/mturk_stimuli/bjmedina/mem_exp_atexts_2025/mem_stim_46.wav","3","main","","","true","mem_stim_46.wav","false","16","","0","miss"
"","","","","","html-keyboard-response","200","511452","0.0-10.0-1.85","https://mcdermottlab.mit.edu/mturk_stimuli/bjmedina/mem_exp_atexts_2025/sequences/isi_16/len120/seq054_len120_s15_isi-1p0_0p0_16p0.json","11.07","true","mqsel2qj1bm","","null","<span style=""font-size: 40px"">+</span>","null","","","","","","","","","",""
"","","","","","audio-button-response","201","514720","0.0-10.0-2.85","https://mcdermottlab.mit.edu/mturk_stimuli/bjmedina/mem_exp_atexts_2025/sequences/isi_16/len120/seq054_len120_s15_isi-1p0_0p0_16p0.json","11.07","true","mqsel2qj1bm","","2571","https://mcdermottlab.mit.edu/mturk_stimuli/bjmedina/mem_exp_atexts_2025/mem_stim_42.wav","3","main","","","false","mem_stim_42.wav","false","-1","","1","correct_rejection"
"","","","","","html-keyboard-response","202","514792","0.0-10.0-1.86","https://mcdermottlab.mit.edu/mturk_stimuli/bjmedina/mem_exp_atexts_2025/sequences/isi_16/len120/seq054_len120_s15_isi-1p0_0p0_16p0.json","11.07","true","mqsel2qj1bm","","null","<span style=""font-size: 40px"">+</span>","null","","","","","","","","","",""
"","","","","","audio-button-response","203","518021","0.0-10.0-2.86","https://mcdermottlab.mit.edu/mturk_stimuli/bjmedina/mem_exp_atexts_2025/sequences/isi_16/len120/seq054_len120_s15_isi-1p0_0p0_16p0.json","11.07","true","mqsel2qj1bm","","2469","https://mcdermottlab.mit.edu/mturk_stimuli/bjmedina/mem_exp_atexts_2025/mem_stim_23.wav","3","main","","","false","mem_stim_23.wav","false","-1","","1","correct_rejection"
"","","","","","html-keyboard-response","204","518091","0.0-10.0-1.87","https://mcdermottlab.mit.edu/mturk_stimuli/bjmedina/mem_exp_atexts_2025/sequences/isi_16/len120/seq054_len120_s15_isi-1p0_0p0_16p0.json","11.07","true","mqsel2qj1bm","","null","<span style=""font-size: 40px"">+</span>","null","","","","","","","","","",""
"","","","","","audio-button-response","205","521172","0.0-10.0-2.87","https://mcdermottlab.mit.edu/mturk_stimuli/bjmedina/mem_exp_atexts_2025/sequences/isi_16/len120/seq054_len120_s15_isi-1p0_0p0_16p0.json","11.07","true","mqsel2qj1bm","","2488","https://mcdermottlab.mit.edu/mturk_stimuli/bjmedina/mem_exp_atexts_2025/mem_stim_63.wav","3","main","","","false","mem_stim_63.wav","false","-1","","1","correct_rejection"
"","","","","","html-keyboard-response","206","521231","0.0-10.0-1.88","https://mcdermottlab.mit.edu/mturk_stimuli/bjmedina/mem_exp_atexts_2025/sequences/isi_16/len120/seq054_len120_s15_isi-1p0_0p0_16p0.json","11.07","true","mqsel2qj1bm","","null","<span style=""font-size: 40px"">+</span>","null","","","","","","","","","",""
"","","","","","audio-button-response","207","525029","0.0-10.0-2.88","https://mcdermottlab.mit.edu/mturk_stimuli/bjmedina/mem_exp_atexts_2025/sequences/isi_16/len120/seq054_len120_s15_isi-1p0_0p0_16p0.json","11.07","true","mqsel2qj1bm","","3171","https://mcdermottlab.mit.edu/mturk_stimuli/bjmedina/mem_exp_atexts_2025/mem_stim_32.wav","1","main","","","false","mem_stim_32.wav","false","-1","","0","false_alarm"
"","","","","","html-keyboard-response","208","525095","0.0-10.0-1.89","https://mcdermottlab.mit.edu/mturk_stimuli/bjmedina/mem_exp_atexts_2025/sequences/isi_16/len120/seq054_len120_s15_isi-1p0_0p0_16p0.json","11.07","true","mqsel2qj1bm","","null","<span style=""font-size: 40px"">+</span>","null","","","","","","","","","",""
"","","","","","audio-button-response","209","529861","0.0-10.0-2.89","https://mcdermottlab.mit.edu/mturk_stimuli/bjmedina/mem_exp_atexts_2025/sequences/isi_16/len120/seq054_len120_s15_isi-1p0_0p0_16p0.json","11.07","true","mqsel2qj1bm","","4109","https://mcdermottlab.mit.edu/mturk_stimuli/bjmedina/mem_exp_atexts_2025/mem_stim_50.wav","0","main","","","false","mem_stim_50.wav","false","-1","","1","correct_rejection"
"","","","","","html-keyboard-response","210","529927","0.0-10.0-1.90","https://mcdermottlab.mit.edu/mturk_stimuli/bjmedina/mem_exp_atexts_2025/sequences/isi_16/len120/seq054_len120_s15_isi-1p0_0p0_16p0.json","11.07","true","mqsel2qj1bm","","null","<span style=""font-size: 40px"">+</span>","null","","","","","","","","","",""
"","","","","","audio-button-response","211","533264","0.0-10.0-2.90","https://mcdermottlab.mit.edu/mturk_stimuli/bjmedina/mem_exp_atexts_2025/sequences/isi_16/len120/seq054_len120_s15_isi-1p0_0p0_16p0.json","11.07","true","mqsel2qj1bm","","2720","https://mcdermottlab.mit.edu/mturk_stimuli/bjmedina/mem_exp_atexts_2025/mem_stim_67.wav","2","main","","","false","mem_stim_67.wav","false","-1","","1","correct_rejection"
"","","","","","html-keyboard-response","212","533326","0.0-10.0-1.91","https://mcdermottlab.mit.edu/mturk_stimuli/bjmedina/mem_exp_atexts_2025/sequences/isi_16/len120/seq054_len120_s15_isi-1p0_0p0_16p0.json","11.07","true","mqsel2qj1bm","","null","<span style=""font-size: 40px"">+</span>","null","","","","","","","","","",""
"","","","","","audio-button-response","213","536492","0.0-10.0-2.91","https://mcdermottlab.mit.edu/mturk_stimuli/bjmedina/mem_exp_atexts_2025/sequences/isi_16/len120/seq054_len120_s15_isi-1p0_0p0_16p0.json","11.07","true","mqsel2qj1bm","","3168","https://mcdermottlab.mit.edu/mturk_stimuli/bjmedina/mem_exp_atexts_2025/mem_stim_34.wav","3","main","","","true","mem_stim_34.wav","false","16","","0","miss"
"","","","","","html-keyboard-response","214","536559","0.0-10.0-1.92","https://mcdermottlab.mit.edu/mturk_stimuli/bjmedina/mem_exp_atexts_2025/sequences/isi_16/len120/seq054_len120_s15_isi-1p0_0p0_16p0.json","11.07","true","mqsel2qj1bm","","null","<span style=""font-size: 40px"">+</span>","null","","","","","","","","","",""
"","","","","","audio-button-response","215","539712","0.0-10.0-2.92","https://mcdermottlab.mit.edu/mturk_stimuli/bjmedina/mem_exp_atexts_2025/sequences/isi_16/len120/seq054_len120_s15_isi-1p0_0p0_16p0.json","11.07","true","mqsel2qj1bm","","2461","https://mcdermottlab.mit.edu/mturk_stimuli/bjmedina/mem_exp_atexts_2025/mem_stim_7.wav","0","main","","","false","mem_stim_7.wav","false","-1","","1","correct_rejection"
"","","","","","html-keyboard-response","216","539777","0.0-10.0-1.93","https://mcdermottlab.mit.edu/mturk_stimuli/bjmedina/mem_exp_atexts_2025/sequences/isi_16/len120/seq054_len120_s15_isi-1p0_0p0_16p0.json","11.07","true","mqsel2qj1bm","","null","<span style=""font-size: 40px"">+</span>","null","","","","","","","","","",""
"","","","","","audio-button-response","217","542339","0.0-10.0-2.93","https://mcdermottlab.mit.edu/mturk_stimuli/bjmedina/mem_exp_atexts_2025/sequences/isi_16/len120/seq054_len120_s15_isi-1p0_0p0_16p0.json","11.07","true","mqsel2qj1bm","","2571","https://mcdermottlab.mit.edu/mturk_stimuli/bjmedina/mem_exp_atexts_2025/mem_stim_36.wav","0","main","","","true","mem_stim_36.wav","false","16","","0","miss"
"","","","","","html-keyboard-response","218","542409","0.0-10.0-1.94","https://mcdermottlab.mit.edu/mturk_stimuli/bjmedina/mem_exp_atexts_2025/sequences/isi_16/len120/seq054_len120_s15_isi-1p0_0p0_16p0.json","11.07","true","mqsel2qj1bm","","null","<span style=""font-size: 40px"">+</span>","null","","","","","","","","","",""
"","","","","","audio-button-response","219","546300","0.0-10.0-2.94","https://mcdermottlab.mit.edu/mturk_stimuli/bjmedina/mem_exp_atexts_2025/sequences/isi_16/len120/seq054_len120_s15_isi-1p0_0p0_16p0.json","11.07","true","mqsel2qj1bm","","2560","https://mcdermottlab.mit.edu/mturk_stimuli/bjmedina/mem_exp_atexts_2025/mem_stim_61.wav","2","main","","","false","mem_stim_61.wav","false","-1","","1","correct_rejection"
"","","","","","html-keyboard-response","220","546368","0.0-10.0-1.95","https://mcdermottlab.mit.edu/mturk_stimuli/bjmedina/mem_exp_atexts_2025/sequences/isi_16/len120/seq054_len120_s15_isi-1p0_0p0_16p0.json","11.07","true","mqsel2qj1bm","","null","<span style=""font-size: 40px"">+</span>","null","","","","","","","","","",""
"","","","","","audio-button-response","221","549193","0.0-10.0-2.95","https://mcdermottlab.mit.edu/mturk_stimuli/bjmedina/mem_exp_atexts_2025/sequences/isi_16/len120/seq054_len120_s15_isi-1p0_0p0_16p0.json","11.07","true","mqsel2qj1bm","","2821","https://mcdermottlab.mit.edu/mturk_stimuli/bjmedina/mem_exp_atexts_2025/mem_stim_31.wav","2","main","","","true","mem_stim_31.wav","false","16","","0","miss"
"","","","","","html-keyboard-response","222","549264","0.0-10.0-1.96","https://mcdermottlab.mit.edu/mturk_stimuli/bjmedina/mem_exp_atexts_2025/sequences/isi_16/len120/seq054_len120_s15_isi-1p0_0p0_16p0.json","11.07","true","mqsel2qj1bm","","null","<span style=""font-size: 40px"">+</span>","null","","","","","","","","","",""
"","","","","","audio-button-response","223","552620","0.0-10.0-2.96","https://mcdermottlab.mit.edu/mturk_stimuli/bjmedina/mem_exp_atexts_2025/sequences/isi_16/len120/seq054_len120_s15_isi-1p0_0p0_16p0.json","11.07","true","mqsel2qj1bm","","2629","https://mcdermottlab.mit.edu/mturk_stimuli/bjmedina/mem_exp_atexts_2025/mem_stim_22.wav","3","main","","","false","mem_stim_22.wav","false","-1","","1","correct_rejection"
"","","","","","html-keyboard-response","224","552679","0.0-10.0-1.97","https://mcdermottlab.mit.edu/mturk_stimuli/bjmedina/mem_exp_atexts_2025/sequences/isi_16/len120/seq054_len120_s15_isi-1p0_0p0_16p0.json","11.07","true","mqsel2qj1bm","","null","<span style=""font-size: 40px"">+</span>","null","","","","","","","","","",""
"","","","","","audio-button-response","225","555215","0.0-10.0-2.97","https://mcdermottlab.mit.edu/mturk_stimuli/bjmedina/mem_exp_atexts_2025/sequences/isi_16/len120/seq054_len120_s15_isi-1p0_0p0_16p0.json","11.07","true","mqsel2qj1bm","","2528","https://mcdermottlab.mit.edu/mturk_stimuli/bjmedina/mem_exp_atexts_2025/mem_stim_44.wav","3","main","","","true","mem_stim_44.wav","false","16","","0","miss"
"","","","","","html-keyboard-response","226","555283","0.0-10.0-1.98","https://mcdermottlab.mit.edu/mturk_stimuli/bjmedina/mem_exp_atexts_2025/sequences/isi_16/len120/seq054_len120_s15_isi-1p0_0p0_16p0.json","11.07","true","mqsel2qj1bm","","null","<span style=""font-size: 40px"">+</span>","null","","","","","","","","","",""
"","","","","","audio-button-response","227","557818","0.0-10.0-2.98","https://mcdermottlab.mit.edu/mturk_stimuli/bjmedina/mem_exp_atexts_2025/sequences/isi_16/len120/seq054_len120_s15_isi-1p0_0p0_16p0.json","11.07","true","mqsel2qj1bm","","2528","https://mcdermottlab.mit.edu/mturk_stimuli/bjmedina/mem_exp_atexts_2025/mem_stim_28.wav","3","main","","","true","mem_stim_28.wav","false","16","","0","miss"
"","","","","","html-keyboard-response","228","557890","0.0-10.0-1.99","https://mcdermottlab.mit.edu/mturk_stimuli/bjmedina/mem_exp_atexts_2025/sequences/isi_16/len120/seq054_len120_s15_isi-1p0_0p0_16p0.json","11.07","true","mqsel2qj1bm","","null","<span style=""font-size: 40px"">+</span>","null","","","","","","","","","",""
"","","","","","audio-button-response","229","560500","0.0-10.0-2.99","https://mcdermottlab.mit.edu/mturk_stimuli/bjmedina/mem_exp_atexts_2025/sequences/isi_16/len120/seq054_len120_s15_isi-1p0_0p0_16p0.json","11.07","true","mqsel2qj1bm","","2611","https://mcdermottlab.mit.edu/mturk_stimuli/bjmedina/mem_exp_atexts_2025/mem_stim_30.wav","3","main","","","true","mem_stim_30.wav","false","16","","0","miss"
"","","","","","html-keyboard-response","230","560558","0.0-10.0-1.100","https://mcdermottlab.mit.edu/mturk_stimuli/bjmedina/mem_exp_atexts_2025/sequences/isi_16/len120/seq054_len120_s15_isi-1p0_0p0_16p0.json","11.07","true","mqsel2qj1bm","","null","<span style=""font-size: 40px"">+</span>","null","","","","","","","","","",""
"","","","","","audio-button-response","231","563824","0.0-10.0-2.100","https://mcdermottlab.mit.edu/mturk_stimuli/bjmedina/mem_exp_atexts_2025/sequences/isi_16/len120/seq054_len120_s15_isi-1p0_0p0_16p0.json","11.07","true","mqsel2qj1bm","","2520","https://mcdermottlab.mit.edu/mturk_stimuli/bjmedina/mem_exp_atexts_2025/mem_stim_13.wav","3","main","","","false","mem_stim_13.wav","false","-1","","1","correct_rejection"
"","","","","","html-keyboard-response","232","563899","0.0-10.0-1.101","https://mcdermottlab.mit.edu/mturk_stimuli/bjmedina/mem_exp_atexts_2025/sequences/isi_16/len120/seq054_len120_s15_isi-1p0_0p0_16p0.json","11.07","true","mqsel2qj1bm","","null","<span style=""font-size: 40px"">+</span>","null","","","","","","","","","",""
"","","","","","audio-button-response","233","566420","0.0-10.0-2.101","https://mcdermottlab.mit.edu/mturk_stimuli/bjmedina/mem_exp_atexts_2025/sequences/isi_16/len120/seq054_len120_s15_isi-1p0_0p0_16p0.json","11.07","true","mqsel2qj1bm","","2520","https://mcdermottlab.mit.edu/mturk_stimuli/bjmedina/mem_exp_atexts_2025/mem_stim_13.wav","3","main","","","true","mem_stim_13.wav","true","0","","0","miss"
"","","","","","html-keyboard-response","234","566482","0.0-10.0-1.102","https://mcdermottlab.mit.edu/mturk_stimuli/bjmedina/mem_exp_atexts_2025/sequences/isi_16/len120/seq054_len120_s15_isi-1p0_0p0_16p0.json","11.07","true","mqsel2qj1bm","","null","<span style=""font-size: 40px"">+</span>","null","","","","","","","","","",""
"","","","","","audio-button-response","235","569007","0.0-10.0-2.102","https://mcdermottlab.mit.edu/mturk_stimuli/bjmedina/mem_exp_atexts_2025/sequences/isi_16/len120/seq054_len120_s15_isi-1p0_0p0_16p0.json","11.07","true","mqsel2qj1bm","","2520","https://mcdermottlab.mit.edu/mturk_stimuli/bjmedina/mem_exp_atexts_2025/mem_stim_42.wav","3","main","","","true","mem_stim_42.wav","false","16","","0","miss"
"","","","","","html-keyboard-response","236","569071","0.0-10.0-1.103","https://mcdermottlab.mit.edu/mturk_stimuli/bjmedina/mem_exp_atexts_2025/sequences/isi_16/len120/seq054_len120_s15_isi-1p0_0p0_16p0.json","11.07","true","mqsel2qj1bm","","null","<span style=""font-size: 40px"">+</span>","null","","","","","","","","","",""
"","","","","","audio-button-response","237","571569","0.0-10.0-2.103","https://mcdermottlab.mit.edu/mturk_stimuli/bjmedina/mem_exp_atexts_2025/sequences/isi_16/len120/seq054_len120_s15_isi-1p0_0p0_16p0.json","11.07","true","mqsel2qj1bm","","2499","https://mcdermottlab.mit.edu/mturk_stimuli/bjmedina/mem_exp_atexts_2025/mem_stim_23.wav","3","main","","","true","mem_stim_23.wav","false","16","","0","miss"
"","","","","","html-keyboard-response","238","571631","0.0-10.0-1.104","https://mcdermottlab.mit.edu/mturk_stimuli/bjmedina/mem_exp_atexts_2025/sequences/isi_16/len120/seq054_len120_s15_isi-1p0_0p0_16p0.json","11.07","true","mqsel2qj1bm","","null","<span style=""font-size: 40px"">+</span>","null","","","","","","","","","",""
"","","","","","audio-button-response","239","574954","0.0-10.0-2.104","https://mcdermottlab.mit.edu/mturk_stimuli/bjmedina/mem_exp_atexts_2025/sequences/isi_16/len120/seq054_len120_s15_isi-1p0_0p0_16p0.json","11.07","true","mqsel2qj1bm","","2651","https://mcdermottlab.mit.edu/mturk_stimuli/bjmedina/mem_exp_atexts_2025/mem_stim_55.wav","2","main","","","false","mem_stim_55.wav","false","-1","","1","correct_rejection"
"","","","","","html-keyboard-response","240","575016","0.0-10.0-1.105","https://mcdermottlab.mit.edu/mturk_stimuli/bjmedina/mem_exp_atexts_2025/sequences/isi_16/len120/seq054_len120_s15_isi-1p0_0p0_16p0.json","11.07","true","mqsel2qj1bm","","null","<span style=""font-size: 40px"">+</span>","null","","","","","","","","","",""
"","","","","","audio-button-response","241","577699","0.0-10.0-2.105","https://mcdermottlab.mit.edu/mturk_stimuli/bjmedina/mem_exp_atexts_2025/sequences/isi_16/len120/seq054_len120_s15_isi-1p0_0p0_16p0.json","11.07","true","mqsel2qj1bm","","2691","https://mcdermottlab.mit.edu/mturk_stimuli/bjmedina/mem_exp_atexts_2025/mem_stim_32.wav","3","main","","","true","mem_stim_32.wav","false","16","","0","miss"
"","","","","","html-keyboard-response","242","577757","0.0-10.0-1.106","https://mcdermottlab.mit.edu/mturk_stimuli/bjmedina/mem_exp_atexts_2025/sequences/isi_16/len120/seq054_len120_s15_isi-1p0_0p0_16p0.json","11.07","true","mqsel2qj1bm","","null","<span style=""font-size: 40px"">+</span>","null","","","","","","","","","",""
"","","","","","audio-button-response","243","582375","0.0-10.0-2.106","https://mcdermottlab.mit.edu/mturk_stimuli/bjmedina/mem_exp_atexts_2025/sequences/isi_16/len120/seq054_len120_s15_isi-1p0_0p0_16p0.json","11.07","true","mqsel2qj1bm","","3339","https://mcdermottlab.mit.edu/mturk_stimuli/bjmedina/mem_exp_atexts_2025/mem_stim_70.wav","0","main","","","false","mem_stim_70.wav","false","-1","","1","correct_rejection"
"","","","","","html-keyboard-response","244","582445","0.0-10.0-1.107","https://mcdermottlab.mit.edu/mturk_stimuli/bjmedina/mem_exp_atexts_2025/sequences/isi_16/len120/seq054_len120_s15_isi-1p0_0p0_16p0.json","11.07","true","mqsel2qj1bm","","null","<span style=""font-size: 40px"">+</span>","null","","","","","","","","","",""
"","","","","","audio-button-response","245","586233","0.0-10.0-2.107","https://mcdermottlab.mit.edu/mturk_stimuli/bjmedina/mem_exp_atexts_2025/sequences/isi_16/len120/seq054_len120_s15_isi-1p0_0p0_16p0.json","11.07","true","mqsel2qj1bm","","3181","https://mcdermottlab.mit.edu/mturk_stimuli/bjmedina/mem_exp_atexts_2025/mem_stim_19.wav","1","main","","","false","mem_stim_19.wav","false","-1","","0","false_alarm"
"","","","","","html-keyboard-response","246","586295","0.0-10.0-1.108","https://mcdermottlab.mit.edu/mturk_stimuli/bjmedina/mem_exp_atexts_2025/sequences/isi_16/len120/seq054_len120_s15_isi-1p0_0p0_16p0.json","11.07","true","mqsel2qj1bm","","null","<span style=""font-size: 40px"">+</span>","null","","","","","","","","","",""
"","","","","","audio-button-response","247","588804","0.0-10.0-2.108","https://mcdermottlab.mit.edu/mturk_stimuli/bjmedina/mem_exp_atexts_2025/sequences/isi_16/len120/seq054_len120_s15_isi-1p0_0p0_16p0.json","11.07","true","mqsel2qj1bm","","2512","https://mcdermottlab.mit.edu/mturk_stimuli/bjmedina/mem_exp_atexts_2025/mem_stim_19.wav","3","main","","","true","mem_stim_19.wav","true","0","","0","miss"
"","","","","","html-keyboard-response","248","588869","0.0-10.0-1.109","https://mcdermottlab.mit.edu/mturk_stimuli/bjmedina/mem_exp_atexts_2025/sequences/isi_16/len120/seq054_len120_s15_isi-1p0_0p0_16p0.json","11.07","true","mqsel2qj1bm","","null","<span style=""font-size: 40px"">+</span>","null","","","","","","","","","",""
"","","","","","audio-button-response","249","592328","0.0-10.0-2.109","https://mcdermottlab.mit.edu/mturk_stimuli/bjmedina/mem_exp_atexts_2025/sequences/isi_16/len120/seq054_len120_s15_isi-1p0_0p0_16p0.json","11.07","true","mqsel2qj1bm","","2581","https://mcdermottlab.mit.edu/mturk_stimuli/bjmedina/mem_exp_atexts_2025/mem_stim_57.wav","3","main","","","false","mem_stim_57.wav","false","-1","","1","correct_rejection"
"","","","","","html-keyboard-response","250","592394","0.0-10.0-1.110","https://mcdermottlab.mit.edu/mturk_stimuli/bjmedina/mem_exp_atexts_2025/sequences/isi_16/len120/seq054_len120_s15_isi-1p0_0p0_16p0.json","11.07","true","mqsel2qj1bm","","null","<span style=""font-size: 40px"">+</span>","null","","","","","","","","","",""
"","","","","","audio-button-response","251","595919","0.0-10.0-2.110","https://mcdermottlab.mit.edu/mturk_stimuli/bjmedina/mem_exp_atexts_2025/sequences/isi_16/len120/seq054_len120_s15_isi-1p0_0p0_16p0.json","11.07","true","mqsel2qj1bm","","2931","https://mcdermottlab.mit.edu/mturk_stimuli/bjmedina/mem_exp_atexts_2025/mem_stim_10.wav","2","main","","","false","mem_stim_10.wav","false","-1","","1","correct_rejection"
"","","","","","html-keyboard-response","252","595980","0.0-10.0-1.111","https://mcdermottlab.mit.edu/mturk_stimuli/bjmedina/mem_exp_atexts_2025/sequences/isi_16/len120/seq054_len120_s15_isi-1p0_0p0_16p0.json","11.07","true","mqsel2qj1bm","","null","<span style=""font-size: 40px"">+</span>","null","","","","","","","","","",""
"","","","","","audio-button-response","253","598511","0.0-10.0-2.111","https://mcdermottlab.mit.edu/mturk_stimuli/bjmedina/mem_exp_atexts_2025/sequences/isi_16/len120/seq054_len120_s15_isi-1p0_0p0_16p0.json","11.07","true","mqsel2qj1bm","","2531","https://mcdermottlab.mit.edu/mturk_stimuli/bjmedina/mem_exp_atexts_2025/mem_stim_10.wav","3","main","","","true","mem_stim_10.wav","true","0","","0","miss"
"","","","","","html-keyboard-response","254","598583","0.0-10.0-1.112","https://mcdermottlab.mit.edu/mturk_stimuli/bjmedina/mem_exp_atexts_2025/sequences/isi_16/len120/seq054_len120_s15_isi-1p0_0p0_16p0.json","11.07","true","mqsel2qj1bm","","null","<span style=""font-size: 40px"">+</span>","null","","","","","","","","","",""
"","","","","","audio-button-response","255","603243","0.0-10.0-2.112","https://mcdermottlab.mit.edu/mturk_stimuli/bjmedina/mem_exp_atexts_2025/sequences/isi_16/len120/seq054_len120_s15_isi-1p0_0p0_16p0.json","11.07","true","mqsel2qj1bm","","3981","https://mcdermottlab.mit.edu/mturk_stimuli/bjmedina/mem_exp_atexts_2025/mem_stim_79.wav","1","main","","","false","mem_stim_79.wav","false","-1","","0","false_alarm"
"","","","","","html-keyboard-response","256","603311","0.0-10.0-1.113","https://mcdermottlab.mit.edu/mturk_stimuli/bjmedina/mem_exp_atexts_2025/sequences/isi_16/len120/seq054_len120_s15_isi-1p0_0p0_16p0.json","11.07","true","mqsel2qj1bm","","null","<span style=""font-size: 40px"">+</span>","null","","","","","","","","","",""
"","","","","","audio-button-response","257","606036","0.0-10.0-2.113","https://mcdermottlab.mit.edu/mturk_stimuli/bjmedina/mem_exp_atexts_2025/sequences/isi_16/len120/seq054_len120_s15_isi-1p0_0p0_16p0.json","11.07","true","mqsel2qj1bm","","2720","https://mcdermottlab.mit.edu/mturk_stimuli/bjmedina/mem_exp_atexts_2025/mem_stim_22.wav","2","main","","","true","mem_stim_22.wav","false","16","","0","miss"
"","","","","","html-keyboard-response","258","606097","0.0-10.0-1.114","https://mcdermottlab.mit.edu/mturk_stimuli/bjmedina/mem_exp_atexts_2025/sequences/isi_16/len120/seq054_len120_s15_isi-1p0_0p0_16p0.json","11.07","true","mqsel2qj1bm","","null","<span style=""font-size: 40px"">+</span>","null","","","","","","","","","",""
"","","","","","audio-button-response","259","609833","0.0-10.0-2.114","https://mcdermottlab.mit.edu/mturk_stimuli/bjmedina/mem_exp_atexts_2025/sequences/isi_16/len120/seq054_len120_s15_isi-1p0_0p0_16p0.json","11.07","true","mqsel2qj1bm","","2981","https://mcdermottlab.mit.edu/mturk_stimuli/bjmedina/mem_exp_atexts_2025/mem_stim_65.wav","1","main","","","false","mem_stim_65.wav","false","-1","","0","false_alarm"
"","","","","","html-keyboard-response","260","609900","0.0-10.0-1.115","https://mcdermottlab.mit.edu/mturk_stimuli/bjmedina/mem_exp_atexts_2025/sequences/isi_16/len120/seq054_len120_s15_isi-1p0_0p0_16p0.json","11.07","true","mqsel2qj1bm","","null","<span style=""font-size: 40px"">+</span>","null","","","","","","","","","",""
"","","","","","audio-button-response","261","613258","0.0-10.0-2.115","https://mcdermottlab.mit.edu/mturk_stimuli/bjmedina/mem_exp_atexts_2025/sequences/isi_16/len120/seq054_len120_s15_isi-1p0_0p0_16p0.json","11.07","true","mqsel2qj1bm","","2699","https://mcdermottlab.mit.edu/mturk_stimuli/bjmedina/mem_exp_atexts_2025/mem_stim_56.wav","1","main","","","false","mem_stim_56.wav","false","-1","","0","false_alarm"
"","","","","","html-keyboard-response","262","613320","0.0-10.0-1.116","https://mcdermottlab.mit.edu/mturk_stimuli/bjmedina/mem_exp_atexts_2025/sequences/isi_16/len120/seq054_len120_s15_isi-1p0_0p0_16p0.json","11.07","true","mqsel2qj1bm","","null","<span style=""font-size: 40px"">+</span>","null","","","","","","","","","",""
"","","","","","audio-button-response","263","616982","0.0-10.0-2.116","https://mcdermottlab.mit.edu/mturk_stimuli/bjmedina/mem_exp_atexts_2025/sequences/isi_16/len120/seq054_len120_s15_isi-1p0_0p0_16p0.json","11.07","true","mqsel2qj1bm","","3040","https://mcdermottlab.mit.edu/mturk_stimuli/bjmedina/mem_exp_atexts_2025/mem_stim_11.wav","1","main","","","false","mem_stim_11.wav","false","-1","","0","false_alarm"
"","","","","","html-keyboard-response","264","617045","0.0-10.0-1.117","https://mcdermottlab.mit.edu/mturk_stimuli/bjmedina/mem_exp_atexts_2025/sequences/isi_16/len120/seq054_len120_s15_isi-1p0_0p0_16p0.json","11.07","true","mqsel2qj1bm","","null","<span style=""font-size: 40px"">+</span>","null","","","","","","","","","",""
"","","","","","audio-button-response","265","619566","0.0-10.0-2.117","https://mcdermottlab.mit.edu/mturk_stimuli/bjmedina/mem_exp_atexts_2025/sequences/isi_16/len120/seq054_len120_s15_isi-1p0_0p0_16p0.json","11.07","true","mqsel2qj1bm","","2520","https://mcdermottlab.mit.edu/mturk_stimuli/bjmedina/mem_exp_atexts_2025/mem_stim_11.wav","3","main","","","true","mem_stim_11.wav","true","0","","0","miss"
"","","","","","html-keyboard-response","266","619630","0.0-10.0-1.118","https://mcdermottlab.mit.edu/mturk_stimuli/bjmedina/mem_exp_atexts_2025/sequences/isi_16/len120/seq054_len120_s15_isi-1p0_0p0_16p0.json","11.07","true","mqsel2qj1bm","","null","<span style=""font-size: 40px"">+</span>","null","","","","","","","","","",""
"","","","","","audio-button-response","267","623019","0.0-10.0-2.118","https://mcdermottlab.mit.edu/mturk_stimuli/bjmedina/mem_exp_atexts_2025/sequences/isi_16/len120/seq054_len120_s15_isi-1p0_0p0_16p0.json","11.07","true","mqsel2qj1bm","","2549","https://mcdermottlab.mit.edu/mturk_stimuli/bjmedina/mem_exp_atexts_2025/mem_stim_54.wav","0","main","","","false","mem_stim_54.wav","false","-1","","1","correct_rejection"
"","","","","","html-keyboard-response","268","623080","0.0-10.0-1.119","https://mcdermottlab.mit.edu/mturk_stimuli/bjmedina/mem_exp_atexts_2025/sequences/isi_16/len120/seq054_len120_s15_isi-1p0_0p0_16p0.json","11.07","true","mqsel2qj1bm","","null","<span style=""font-size: 40px"">+</span>","null","","","","","","","","","",""
