"success","timeout","failed_images","failed_audio","failed_video","trial_type","trial_index","time_elapsed","internal_node_id","sequence_file","pay","passed_hc","completion_code","view_history","rt","stimulus","response","stim_type","hc_answer","correct_hc","repeat","yt_id","catch","isi","type","is_correct","response_type"
"true","false","[]","[]","[]","preload","0","389","0.0-0.0","https://mcdermottlab.mit.edu/mturk_stimuli/bjmedina/mem_exp_atexts_2025/sequences/isi_16/len120/seq020_len120_s15_isi-1p0_0p0_16p0.json","11.28","true","nbgjl1qv11s","","","","","","","","","","","","","",""
"","","","","","instructions","1","11261","0.0-1.0","https://mcdermottlab.mit.edu/mturk_stimuli/bjmedina/mem_exp_atexts_2025/sequences/isi_16/len120/seq020_len120_s15_isi-1p0_0p0_16p0.json","11.28","true","nbgjl1qv11s","[{""page_index"":0,""viewing_time"":10871}]","10871","","","","","","","","","","","",""
"","","","","","instructions","2","94876","0.0-2.0","https://mcdermottlab.mit.edu/mturk_stimuli/bjmedina/mem_exp_atexts_2025/sequences/isi_16/len120/seq020_len120_s15_isi-1p0_0p0_16p0.json","11.28","true","nbgjl1qv11s","[{""page_index"":0,""viewing_time"":83614}]","83615","","","","","","","","","","","",""
"","","","","","audio-button-response","3","108931","0.0-3.0-0.0","https://mcdermottlab.mit.edu/mturk_stimuli/bjmedina/mem_exp_atexts_2025/sequences/isi_16/len120/seq020_len120_s15_isi-1p0_0p0_16p0.json","11.28","true","nbgjl1qv11s","","13691","https://mcdermottlab.mit.edu/bjmedina/experiments/mem_exp_v01/assets/noise_calib_stim.wav","0","","","","","","","","","",""
"","","","","","audio-button-response","4","111918","0.0-3.1-0.1","https://mcdermottlab.mit.edu/mturk_stimuli/bjmedina/mem_exp_atexts_2025/sequences/isi_16/len120/seq020_len120_s15_isi-1p0_0p0_16p0.json","11.28","true","nbgjl1qv11s","","2989","https://mcdermottlab.mit.edu/bjmedina/experiments/mem_exp_v01/assets/noise_calib_stim.wav","1","","","","","","","","","",""
"","","","","","instructions","5","125569","0.0-4.0","https://mcdermottlab.mit.edu/mturk_stimuli/bjmedina/mem_exp_atexts_2025/sequences/isi_16/len120/seq020_len120_s15_isi-1p0_0p0_16p0.json","11.28","true","nbgjl1qv11s","[{""page_index"":0,""viewing_time"":13650}]","13650","","","","","","","","","","","",""
"","","","","","audio-button-response","6","133512","0.0-5.0-0.0","https://mcdermottlab.mit.edu/mturk_stimuli/bjmedina/mem_exp_atexts_2025/sequences/isi_16/len120/seq020_len120_s15_isi-1p0_0p0_16p0.json","11.28","true","nbgjl1qv11s","","4739","https://mcdermottlab.mit.edu/bjmedina/experiments/mem_exp_v01/assets/antiphase_HC_SOI.wav","1","hc","1","0","","","","","","",""
"","","","","","audio-button-response","7","141207","0.0-5.0-0.1","https://mcdermottlab.mit.edu/mturk_stimuli/bjmedina/mem_exp_atexts_2025/sequences/isi_16/len120/seq020_len120_s15_isi-1p0_0p0_16p0.json","11.28","true","nbgjl1qv11s","","4520","https://mcdermottlab.mit.edu/bjmedina/experiments/mem_exp_v01/assets/antiphase_HC_OIS.wav","2","hc","3","1","","","","","","",""
"","","","","","audio-button-response","8","149971","0.0-5.0-0.2","https://mcdermottlab.mit.edu/mturk_stimuli/bjmedina/mem_exp_atexts_2025/sequences/isi_16/len120/seq020_len120_s15_isi-1p0_0p0_16p0.json","11.28","true","nbgjl1qv11s","","4869","https://mcdermottlab.mit.edu/bjmedina/experiments/mem_exp_v01/assets/antiphase_HC_SIO.wav","0","hc","1","1","","","","","","",""
"","","","","","audio-button-response","9","157741","0.0-5.0-0.3","https://mcdermottlab.mit.edu/mturk_stimuli/bjmedina/mem_exp_atexts_2025/sequences/isi_16/len120/seq020_len120_s15_isi-1p0_0p0_16p0.json","11.28","true","nbgjl1qv11s","","4560","https://mcdermottlab.mit.edu/bjmedina/experiments/mem_exp_v01/assets/antiphase_HC_IOS.wav","2","hc","3","1","","","","","","",""
"","","","","","audio-button-response","10","165373","0.0-5.0-0.4","https://mcdermottlab.mit.edu/mturk_stimuli/bjmedina/mem_exp_atexts_2025/sequences/isi_16/len120/seq020_len120_s15_isi-1p0_0p0_16p0.json","11.28","true","nbgjl1qv11s","","4389","https://mcdermottlab.mit.edu/bjmedina/experiments/mem_exp_v01/assets/antiphase_HC_ISO.wav","1","hc","2","1","","","","","","",""
"","","","","","audio-button-response","11","173013","0.0-5.0-0.5","https://mcdermottlab.mit.edu/mturk_stimuli/bjmedina/mem_exp_atexts_2025/sequences/isi_16/len120/seq020_len120_s15_isi-1p0_0p0_16p0.json","11.28","true","nbgjl1qv11s","","4461","https://mcdermottlab.mit.edu/bjmedina/experiments/mem_exp_v01/assets/antiphase_HC_OSI.wav","1","hc","2","1","","","","","","",""
"","","","","","html-keyboard-response","12","175656","0.0-6.0","https://mcdermottlab.mit.edu/mturk_stimuli/bjmedina/mem_exp_atexts_2025/sequences/isi_16/len120/seq020_len120_s15_isi-1p0_0p0_16p0.json","11.28","true","nbgjl1qv11s","","2641","<h1>You have finished the LOUDNESS task!</h1> <p>Press space to continue</p>"," ","","","","","","","","","",""
"","","","","","instructions","13","261364","0.0-7.0","https://mcdermottlab.mit.edu/mturk_stimuli/bjmedina/mem_exp_atexts_2025/sequences/isi_16/len120/seq020_len120_s15_isi-1p0_0p0_16p0.json","11.28","true","nbgjl1qv11s","[{""page_index"":0,""viewing_time"":5579},{""page_index"":1,""viewing_time"":8663},{""page_index"":2,""viewing_time"":63323},{""page_index"":3,""viewing_time"":8142}]","85707","","","","","","","","","","","",""
"","","","","","html-keyboard-response","14","261417","0.0-8.0-0.0","https://mcdermottlab.mit.edu/mturk_stimuli/bjmedina/mem_exp_atexts_2025/sequences/isi_16/len120/seq020_len120_s15_isi-1p0_0p0_16p0.json","11.28","true","nbgjl1qv11s","","null","<span style=""font-size: 40px"">+</span>","null","fixation","","","","","","","","",""
"","","","","","audio-button-response","15","267929","0.0-8.0-1.0","https://mcdermottlab.mit.edu/mturk_stimuli/bjmedina/mem_exp_atexts_2025/sequences/isi_16/len120/seq020_len120_s15_isi-1p0_0p0_16p0.json","11.28","true","nbgjl1qv11s","","2699","https://mcdermottlab.mit.edu/mturk_stimuli/bjmedina/mem_exp_v05/mem_stim_1023_f32.wav","0","demo","","","0","","","","","",""
"","","","","","html-keyboard-response","16","267990","0.0-8.0-0.1","https://mcdermottlab.mit.edu/mturk_stimuli/bjmedina/mem_exp_atexts_2025/sequences/isi_16/len120/seq020_len120_s15_isi-1p0_0p0_16p0.json","11.28","true","nbgjl1qv11s","","null","<span style=""font-size: 40px"">+</span>","null","fixation","","","","","","","","",""
"","","","","","audio-button-response","17","271175","0.0-8.0-1.1","https://mcdermottlab.mit.edu/mturk_stimuli/bjmedina/mem_exp_atexts_2025/sequences/isi_16/len120/seq020_len120_s15_isi-1p0_0p0_16p0.json","11.28","true","nbgjl1qv11s","","2328","https://mcdermottlab.mit.edu/mturk_stimuli/bjmedina/mem_exp_v05/mem_stim_1022_f32.wav","0","demo","","","0","","","","","",""
"","","","","","html-keyboard-response","18","271242","0.0-8.0-0.2","https://mcdermottlab.mit.edu/mturk_stimuli/bjmedina/mem_exp_atexts_2025/sequences/isi_16/len120/seq020_len120_s15_isi-1p0_0p0_16p0.json","11.28","true","nbgjl1qv11s","","null","<span style=""font-size: 40px"">+</span>","null","fixation","","","","","","","","",""
"","","","","","audio-button-response","19","273685","0.0-8.0-1.2","https://mcdermottlab.mit.edu/mturk_stimuli/bjmedina/mem_exp_atexts_2025/sequences/isi_16/len120/seq020_len120_s15_isi-1p0_0p0_16p0.json","11.28","true","nbgjl1qv11s","","2440","https://mcdermottlab.mit.edu/mturk_stimuli/bjmedina/mem_exp_v05/mem_stim_1022_f32.wav","3","demo","","","1","","","","","",""
"","","","","","html-keyboard-response","20","273740","0.0-8.0-0.3","https://mcdermottlab.mit.edu/mturk_stimuli/bjmedina/mem_exp_atexts_2025/sequences/isi_16/len120/seq020_len120_s15_isi-1p0_0p0_16p0.json","11.28","true","nbgjl1qv11s","","null","<span style=""font-size: 40px"">+</span>","null","fixation","","","","","","","","",""
"","","","","","audio-button-response","21","281712","0.0-8.0-1.3","https://mcdermottlab.mit.edu/mturk_stimuli/bjmedina/mem_exp_atexts_2025/sequences/isi_16/len120/seq020_len120_s15_isi-1p0_0p0_16p0.json","11.28","true","nbgjl1qv11s","","4261","https://mcdermottlab.mit.edu/mturk_stimuli/bjmedina/mem_exp_v05/mem_stim_1021_f32.wav","3","demo","","","0","","","","","",""
"","","","","","html-keyboard-response","22","281772","0.0-8.0-0.4","https://mcdermottlab.mit.edu/mturk_stimuli/bjmedina/mem_exp_atexts_2025/sequences/isi_16/len120/seq020_len120_s15_isi-1p0_0p0_16p0.json","11.28","true","nbgjl1qv11s","","null","<span style=""font-size: 40px"">+</span>","null","fixation","","","","","","","","",""
"","","","","","audio-button-response","23","285453","0.0-8.0-1.4","https://mcdermottlab.mit.edu/mturk_stimuli/bjmedina/mem_exp_atexts_2025/sequences/isi_16/len120/seq020_len120_s15_isi-1p0_0p0_16p0.json","11.28","true","nbgjl1qv11s","","3680","https://mcdermottlab.mit.edu/mturk_stimuli/bjmedina/mem_exp_v05/mem_stim_1023_f32.wav","1","demo","","","1","","","","","",""
"","","","","","html-keyboard-response","24","285503","0.0-8.0-0.5","https://mcdermottlab.mit.edu/mturk_stimuli/bjmedina/mem_exp_atexts_2025/sequences/isi_16/len120/seq020_len120_s15_isi-1p0_0p0_16p0.json","11.28","true","nbgjl1qv11s","","null","<span style=""font-size: 40px"">+</span>","null","fixation","","","","","","","","",""
"","","","","","audio-button-response","25","291623","0.0-8.0-1.5","https://mcdermottlab.mit.edu/mturk_stimuli/bjmedina/mem_exp_atexts_2025/sequences/isi_16/len120/seq020_len120_s15_isi-1p0_0p0_16p0.json","11.28","true","nbgjl1qv11s","","2909","https://mcdermottlab.mit.edu/mturk_stimuli/bjmedina/mem_exp_v05/mem_stim_1020_f32.wav","0","demo","","","0","","","","","",""
"","","","","","html-keyboard-response","26","291685","0.0-8.0-0.6","https://mcdermottlab.mit.edu/mturk_stimuli/bjmedina/mem_exp_atexts_2025/sequences/isi_16/len120/seq020_len120_s15_isi-1p0_0p0_16p0.json","11.28","true","nbgjl1qv11s","","null","<span style=""font-size: 40px"">+</span>","null","fixation","","","","","","","","",""
"","","","","","audio-button-response","27","295289","0.0-8.0-1.6","https://mcdermottlab.mit.edu/mturk_stimuli/bjmedina/mem_exp_atexts_2025/sequences/isi_16/len120/seq020_len120_s15_isi-1p0_0p0_16p0.json","11.28","true","nbgjl1qv11s","","2728","https://mcdermottlab.mit.edu/mturk_stimuli/bjmedina/mem_exp_v05/mem_stim_1019_f32.wav","0","demo","","","0","","","","","",""
"","","","","","html-keyboard-response","28","295350","0.0-8.0-0.7","https://mcdermottlab.mit.edu/mturk_stimuli/bjmedina/mem_exp_atexts_2025/sequences/isi_16/len120/seq020_len120_s15_isi-1p0_0p0_16p0.json","11.28","true","nbgjl1qv11s","","null","<span style=""font-size: 40px"">+</span>","null","fixation","","","","","","","","",""
"","","","","","audio-button-response","29","298458","0.0-8.0-1.7","https://mcdermottlab.mit.edu/mturk_stimuli/bjmedina/mem_exp_atexts_2025/sequences/isi_16/len120/seq020_len120_s15_isi-1p0_0p0_16p0.json","11.28","true","nbgjl1qv11s","","3099","https://mcdermottlab.mit.edu/mturk_stimuli/bjmedina/mem_exp_v05/mem_stim_1021_f32.wav","2","demo","","","1","","","","","",""
"","","","","","html-keyboard-response","30","301158","0.0-9.0","https://mcdermottlab.mit.edu/mturk_stimuli/bjmedina/mem_exp_atexts_2025/sequences/isi_16/len120/seq020_len120_s15_isi-1p0_0p0_16p0.json","11.28","true","nbgjl1qv11s","","2699","<p>You are now ready to start the experiment. Press SPACE when you are ready to start.</p>"," ","","","","","","","","","",""
"","","","","","html-keyboard-response","31","301217","0.0-10.0-1.0","https://mcdermottlab.mit.edu/mturk_stimuli/bjmedina/mem_exp_atexts_2025/sequences/isi_16/len120/seq020_len120_s15_isi-1p0_0p0_16p0.json","11.28","true","nbgjl1qv11s","","null","<span style=""font-size: 40px"">+</span>","null","","","","","","","","","",""
"","","","","","audio-button-response","32","307285","0.0-10.0-2.0","https://mcdermottlab.mit.edu/mturk_stimuli/bjmedina/mem_exp_atexts_2025/sequences/isi_16/len120/seq020_len120_s15_isi-1p0_0p0_16p0.json","11.28","true","nbgjl1qv11s","","2571","https://mcdermottlab.mit.edu/mturk_stimuli/bjmedina/mem_exp_atexts_2025/mem_stim_20.wav","0","main","","","false","mem_stim_20.wav","false","-1","","1","correct_rejection"
"","","","","","html-keyboard-response","33","307349","0.0-10.0-1.1","https://mcdermottlab.mit.edu/mturk_stimuli/bjmedina/mem_exp_atexts_2025/sequences/isi_16/len120/seq020_len120_s15_isi-1p0_0p0_16p0.json","11.28","true","nbgjl1qv11s","","null","<span style=""font-size: 40px"">+</span>","null","","","","","","","","","",""
"","","","","","audio-button-response","34","311586","0.0-10.0-2.1","https://mcdermottlab.mit.edu/mturk_stimuli/bjmedina/mem_exp_atexts_2025/sequences/isi_16/len120/seq020_len120_s15_isi-1p0_0p0_16p0.json","11.28","true","nbgjl1qv11s","","2651","https://mcdermottlab.mit.edu/mturk_stimuli/bjmedina/mem_exp_atexts_2025/mem_stim_18.wav","0","main","","","false","mem_stim_18.wav","false","-1","","1","correct_rejection"
"","","","","","html-keyboard-response","35","311647","0.0-10.0-1.2","https://mcdermottlab.mit.edu/mturk_stimuli/bjmedina/mem_exp_atexts_2025/sequences/isi_16/len120/seq020_len120_s15_isi-1p0_0p0_16p0.json","11.28","true","nbgjl1qv11s","","null","<span style=""font-size: 40px"">+</span>","null","","","","","","","","","",""
"","","","","","audio-button-response","36","316315","0.0-10.0-2.2","https://mcdermottlab.mit.edu/mturk_stimuli/bjmedina/mem_exp_atexts_2025/sequences/isi_16/len120/seq020_len120_s15_isi-1p0_0p0_16p0.json","11.28","true","nbgjl1qv11s","","2680","https://mcdermottlab.mit.edu/mturk_stimuli/bjmedina/mem_exp_atexts_2025/mem_stim_4.wav","0","main","","","false","mem_stim_4.wav","false","-1","","1","correct_rejection"
"","","","","","html-keyboard-response","37","316381","0.0-10.0-1.3","https://mcdermottlab.mit.edu/mturk_stimuli/bjmedina/mem_exp_atexts_2025/sequences/isi_16/len120/seq020_len120_s15_isi-1p0_0p0_16p0.json","11.28","true","nbgjl1qv11s","","null","<span style=""font-size: 40px"">+</span>","null","","","","","","","","","",""
"","","","","","audio-button-response","38","319483","0.0-10.0-2.3","https://mcdermottlab.mit.edu/mturk_stimuli/bjmedina/mem_exp_atexts_2025/sequences/isi_16/len120/seq020_len120_s15_isi-1p0_0p0_16p0.json","11.28","true","nbgjl1qv11s","","2621","https://mcdermottlab.mit.edu/mturk_stimuli/bjmedina/mem_exp_atexts_2025/mem_stim_52.wav","0","main","","","false","mem_stim_52.wav","false","-1","","1","correct_rejection"
"","","","","","html-keyboard-response","39","319546","0.0-10.0-1.4","https://mcdermottlab.mit.edu/mturk_stimuli/bjmedina/mem_exp_atexts_2025/sequences/isi_16/len120/seq020_len120_s15_isi-1p0_0p0_16p0.json","11.28","true","nbgjl1qv11s","","null","<span style=""font-size: 40px"">+</span>","null","","","","","","","","","",""
"","","","","","audio-button-response","40","324097","0.0-10.0-2.4","https://mcdermottlab.mit.edu/mturk_stimuli/bjmedina/mem_exp_atexts_2025/sequences/isi_16/len120/seq020_len120_s15_isi-1p0_0p0_16p0.json","11.28","true","nbgjl1qv11s","","2589","https://mcdermottlab.mit.edu/mturk_stimuli/bjmedina/mem_exp_atexts_2025/mem_stim_75.wav","0","main","","","false","mem_stim_75.wav","false","-1","","1","correct_rejection"
"","","","","","html-keyboard-response","41","324160","0.0-10.0-1.5","https://mcdermottlab.mit.edu/mturk_stimuli/bjmedina/mem_exp_atexts_2025/sequences/isi_16/len120/seq020_len120_s15_isi-1p0_0p0_16p0.json","11.28","true","nbgjl1qv11s","","null","<span style=""font-size: 40px"">+</span>","null","","","","","","","","","",""
"","","","","","audio-button-response","42","327810","0.0-10.0-2.5","https://mcdermottlab.mit.edu/mturk_stimuli/bjmedina/mem_exp_atexts_2025/sequences/isi_16/len120/seq020_len120_s15_isi-1p0_0p0_16p0.json","11.28","true","nbgjl1qv11s","","3648","https://mcdermottlab.mit.edu/mturk_stimuli/bjmedina/mem_exp_atexts_2025/mem_stim_75.wav","3","main","","","true","mem_stim_75.wav","true","0","","0","miss"
"","","","","","html-keyboard-response","43","327877","0.0-10.0-1.6","https://mcdermottlab.mit.edu/mturk_stimuli/bjmedina/mem_exp_atexts_2025/sequences/isi_16/len120/seq020_len120_s15_isi-1p0_0p0_16p0.json","11.28","true","nbgjl1qv11s","","null","<span style=""font-size: 40px"">+</span>","null","","","","","","","","","",""
"","","","","","audio-button-response","44","331713","0.0-10.0-2.6","https://mcdermottlab.mit.edu/mturk_stimuli/bjmedina/mem_exp_atexts_2025/sequences/isi_16/len120/seq020_len120_s15_isi-1p0_0p0_16p0.json","11.28","true","nbgjl1qv11s","","2531","https://mcdermottlab.mit.edu/mturk_stimuli/bjmedina/mem_exp_atexts_2025/mem_stim_46.wav","1","main","","","false","mem_stim_46.wav","false","-1","","0","false_alarm"
"","","","","","html-keyboard-response","45","331777","0.0-10.0-1.7","https://mcdermottlab.mit.edu/mturk_stimuli/bjmedina/mem_exp_atexts_2025/sequences/isi_16/len120/seq020_len120_s15_isi-1p0_0p0_16p0.json","11.28","true","nbgjl1qv11s","","null","<span style=""font-size: 40px"">+</span>","null","","","","","","","","","",""
"","","","","","audio-button-response","46","336934","0.0-10.0-2.7","https://mcdermottlab.mit.edu/mturk_stimuli/bjmedina/mem_exp_atexts_2025/sequences/isi_16/len120/seq020_len120_s15_isi-1p0_0p0_16p0.json","11.28","true","nbgjl1qv11s","","3120","https://mcdermottlab.mit.edu/mturk_stimuli/bjmedina/mem_exp_atexts_2025/mem_stim_67.wav","0","main","","","false","mem_stim_67.wav","false","-1","","1","correct_rejection"
"","","","","","html-keyboard-response","47","337006","0.0-10.0-1.8","https://mcdermottlab.mit.edu/mturk_stimuli/bjmedina/mem_exp_atexts_2025/sequences/isi_16/len120/seq020_len120_s15_isi-1p0_0p0_16p0.json","11.28","true","nbgjl1qv11s","","null","<span style=""font-size: 40px"">+</span>","null","","","","","","","","","",""
"","","","","","audio-button-response","48","340940","0.0-10.0-2.8","https://mcdermottlab.mit.edu/mturk_stimuli/bjmedina/mem_exp_atexts_2025/sequences/isi_16/len120/seq020_len120_s15_isi-1p0_0p0_16p0.json","11.28","true","nbgjl1qv11s","","2640","https://mcdermottlab.mit.edu/mturk_stimuli/bjmedina/mem_exp_atexts_2025/mem_stim_50.wav","2","main","","","false","mem_stim_50.wav","false","-1","","1","correct_rejection"
"","","","","","html-keyboard-response","49","341007","0.0-10.0-1.9","https://mcdermottlab.mit.edu/mturk_stimuli/bjmedina/mem_exp_atexts_2025/sequences/isi_16/len120/seq020_len120_s15_isi-1p0_0p0_16p0.json","11.28","true","nbgjl1qv11s","","null","<span style=""font-size: 40px"">+</span>","null","","","","","","","","","",""
"","","","","","audio-button-response","50","345699","0.0-10.0-2.9","https://mcdermottlab.mit.edu/mturk_stimuli/bjmedina/mem_exp_atexts_2025/sequences/isi_16/len120/seq020_len120_s15_isi-1p0_0p0_16p0.json","11.28","true","nbgjl1qv11s","","2669","https://mcdermottlab.mit.edu/mturk_stimuli/bjmedina/mem_exp_atexts_2025/mem_stim_57.wav","3","main","","","false","mem_stim_57.wav","false","-1","","1","correct_rejection"
"","","","","","html-keyboard-response","51","345756","0.0-10.0-1.10","https://mcdermottlab.mit.edu/mturk_stimuli/bjmedina/mem_exp_atexts_2025/sequences/isi_16/len120/seq020_len120_s15_isi-1p0_0p0_16p0.json","11.28","true","nbgjl1qv11s","","null","<span style=""font-size: 40px"">+</span>","null","","","","","","","","","",""
"","","","","","audio-button-response","52","349294","0.0-10.0-2.10","https://mcdermottlab.mit.edu/mturk_stimuli/bjmedina/mem_exp_atexts_2025/sequences/isi_16/len120/seq020_len120_s15_isi-1p0_0p0_16p0.json","11.28","true","nbgjl1qv11s","","2968","https://mcdermottlab.mit.edu/mturk_stimuli/bjmedina/mem_exp_atexts_2025/mem_stim_54.wav","0","main","","","false","mem_stim_54.wav","false","-1","","1","correct_rejection"
"","","","","","html-keyboard-response","53","349354","0.0-10.0-1.11","https://mcdermottlab.mit.edu/mturk_stimuli/bjmedina/mem_exp_atexts_2025/sequences/isi_16/len120/seq020_len120_s15_isi-1p0_0p0_16p0.json","11.28","true","nbgjl1qv11s","","null","<span style=""font-size: 40px"">+</span>","null","","","","","","","","","",""
"","","","","","audio-button-response","54","354593","0.0-10.0-2.11","https://mcdermottlab.mit.edu/mturk_stimuli/bjmedina/mem_exp_atexts_2025/sequences/isi_16/len120/seq020_len120_s15_isi-1p0_0p0_16p0.json","11.28","true","nbgjl1qv11s","","3371","https://mcdermottlab.mit.edu/mturk_stimuli/bjmedina/mem_exp_atexts_2025/mem_stim_62.wav","0","main","","","false","mem_stim_62.wav","false","-1","","1","correct_rejection"
"","","","","","html-keyboard-response","55","354655","0.0-10.0-1.12","https://mcdermottlab.mit.edu/mturk_stimuli/bjmedina/mem_exp_atexts_2025/sequences/isi_16/len120/seq020_len120_s15_isi-1p0_0p0_16p0.json","11.28","true","nbgjl1qv11s","","null","<span style=""font-size: 40px"">+</span>","null","","","","","","","","","",""
"","","","","","audio-button-response","56","361210","0.0-10.0-2.12","https://mcdermottlab.mit.edu/mturk_stimuli/bjmedina/mem_exp_atexts_2025/sequences/isi_16/len120/seq020_len120_s15_isi-1p0_0p0_16p0.json","11.28","true","nbgjl1qv11s","","2968","https://mcdermottlab.mit.edu/mturk_stimuli/bjmedina/mem_exp_atexts_2025/mem_stim_49.wav","0","main","","","false","mem_stim_49.wav","false","-1","","1","correct_rejection"
"","","","","","html-keyboard-response","57","361269","0.0-10.0-1.13","https://mcdermottlab.mit.edu/mturk_stimuli/bjmedina/mem_exp_atexts_2025/sequences/isi_16/len120/seq020_len120_s15_isi-1p0_0p0_16p0.json","11.28","true","nbgjl1qv11s","","null","<span style=""font-size: 40px"">+</span>","null","","","","","","","","","",""
"","","","","","audio-button-response","58","366008","0.0-10.0-2.13","https://mcdermottlab.mit.edu/mturk_stimuli/bjmedina/mem_exp_atexts_2025/sequences/isi_16/len120/seq020_len120_s15_isi-1p0_0p0_16p0.json","11.28","true","nbgjl1qv11s","","2712","https://mcdermottlab.mit.edu/mturk_stimuli/bjmedina/mem_exp_atexts_2025/mem_stim_42.wav","0","main","","","false","mem_stim_42.wav","false","-1","","1","correct_rejection"
"","","","","","html-keyboard-response","59","366066","0.0-10.0-1.14","https://mcdermottlab.mit.edu/mturk_stimuli/bjmedina/mem_exp_atexts_2025/sequences/isi_16/len120/seq020_len120_s15_isi-1p0_0p0_16p0.json","11.28","true","nbgjl1qv11s","","null","<span style=""font-size: 40px"">+</span>","null","","","","","","","","","",""
"","","","","","audio-button-response","60","371621","0.0-10.0-2.14","https://mcdermottlab.mit.edu/mturk_stimuli/bjmedina/mem_exp_atexts_2025/sequences/isi_16/len120/seq020_len120_s15_isi-1p0_0p0_16p0.json","11.28","true","nbgjl1qv11s","","3699","https://mcdermottlab.mit.edu/mturk_stimuli/bjmedina/mem_exp_atexts_2025/mem_stim_5.wav","2","main","","","false","mem_stim_5.wav","false","-1","","1","correct_rejection"
"","","","","","html-keyboard-response","61","371681","0.0-10.0-1.15","https://mcdermottlab.mit.edu/mturk_stimuli/bjmedina/mem_exp_atexts_2025/sequences/isi_16/len120/seq020_len120_s15_isi-1p0_0p0_16p0.json","11.28","true","nbgjl1qv11s","","null","<span style=""font-size: 40px"">+</span>","null","","","","","","","","","",""
"","","","","","audio-button-response","62","378448","0.0-10.0-2.15","https://mcdermottlab.mit.edu/mturk_stimuli/bjmedina/mem_exp_atexts_2025/sequences/isi_16/len120/seq020_len120_s15_isi-1p0_0p0_16p0.json","11.28","true","nbgjl1qv11s","","3312","https://mcdermottlab.mit.edu/mturk_stimuli/bjmedina/mem_exp_atexts_2025/mem_stim_70.wav","3","main","","","false","mem_stim_70.wav","false","-1","","1","correct_rejection"
"","","","","","html-keyboard-response","63","378515","0.0-10.0-1.16","https://mcdermottlab.mit.edu/mturk_stimuli/bjmedina/mem_exp_atexts_2025/sequences/isi_16/len120/seq020_len120_s15_isi-1p0_0p0_16p0.json","11.28","true","nbgjl1qv11s","","null","<span style=""font-size: 40px"">+</span>","null","","","","","","","","","",""
"","","","","","audio-button-response","64","381194","0.0-10.0-2.16","https://mcdermottlab.mit.edu/mturk_stimuli/bjmedina/mem_exp_atexts_2025/sequences/isi_16/len120/seq020_len120_s15_isi-1p0_0p0_16p0.json","11.28","true","nbgjl1qv11s","","2680","https://mcdermottlab.mit.edu/mturk_stimuli/bjmedina/mem_exp_atexts_2025/mem_stim_70.wav","3","main","","","true","mem_stim_70.wav","true","0","","0","miss"
"","","","","","html-keyboard-response","65","381263","0.0-10.0-1.17","https://mcdermottlab.mit.edu/mturk_stimuli/bjmedina/mem_exp_atexts_2025/sequences/isi_16/len120/seq020_len120_s15_isi-1p0_0p0_16p0.json","11.28","true","nbgjl1qv11s","","null","<span style=""font-size: 40px"">+</span>","null","","","","","","","","","",""
"","","","","","audio-button-response","66","384064","0.0-10.0-2.17","https://mcdermottlab.mit.edu/mturk_stimuli/bjmedina/mem_exp_atexts_2025/sequences/isi_16/len120/seq020_len120_s15_isi-1p0_0p0_16p0.json","11.28","true","nbgjl1qv11s","","2800","https://mcdermottlab.mit.edu/mturk_stimuli/bjmedina/mem_exp_atexts_2025/mem_stim_20.wav","3","main","","","true","mem_stim_20.wav","false","16","","0","miss"
"","","","","","html-keyboard-response","67","384130","0.0-10.0-1.18","https://mcdermottlab.mit.edu/mturk_stimuli/bjmedina/mem_exp_atexts_2025/sequences/isi_16/len120/seq020_len120_s15_isi-1p0_0p0_16p0.json","11.28","true","nbgjl1qv11s","","null","<span style=""font-size: 40px"">+</span>","null","","","","","","","","","",""
"","","","","","audio-button-response","68","386706","0.0-10.0-2.18","https://mcdermottlab.mit.edu/mturk_stimuli/bjmedina/mem_exp_atexts_2025/sequences/isi_16/len120/seq020_len120_s15_isi-1p0_0p0_16p0.json","11.28","true","nbgjl1qv11s","","2571","https://mcdermottlab.mit.edu/mturk_stimuli/bjmedina/mem_exp_atexts_2025/mem_stim_18.wav","3","main","","","true","mem_stim_18.wav","false","16","","0","miss"
"","","","","","html-keyboard-response","69","386762","0.0-10.0-1.19","https://mcdermottlab.mit.edu/mturk_stimuli/bjmedina/mem_exp_atexts_2025/sequences/isi_16/len120/seq020_len120_s15_isi-1p0_0p0_16p0.json","11.28","true","nbgjl1qv11s","","null","<span style=""font-size: 40px"">+</span>","null","","","","","","","","","",""
"","","","","","audio-button-response","70","389499","0.0-10.0-2.19","https://mcdermottlab.mit.edu/mturk_stimuli/bjmedina/mem_exp_atexts_2025/sequences/isi_16/len120/seq020_len120_s15_isi-1p0_0p0_16p0.json","11.28","true","nbgjl1qv11s","","2739","https://mcdermottlab.mit.edu/mturk_stimuli/bjmedina/mem_exp_atexts_2025/mem_stim_4.wav","0","main","","","true","mem_stim_4.wav","false","16","","0","miss"
"","","","","","html-keyboard-response","71","389562","0.0-10.0-1.20","https://mcdermottlab.mit.edu/mturk_stimuli/bjmedina/mem_exp_atexts_2025/sequences/isi_16/len120/seq020_len120_s15_isi-1p0_0p0_16p0.json","11.28","true","nbgjl1qv11s","","null","<span style=""font-size: 40px"">+</span>","null","","","","","","","","","",""
"","","","","","audio-button-response","72","394281","0.0-10.0-2.20","https://mcdermottlab.mit.edu/mturk_stimuli/bjmedina/mem_exp_atexts_2025/sequences/isi_16/len120/seq020_len120_s15_isi-1p0_0p0_16p0.json","11.28","true","nbgjl1qv11s","","2560","https://mcdermottlab.mit.edu/mturk_stimuli/bjmedina/mem_exp_atexts_2025/mem_stim_37.wav","0","main","","","false","mem_stim_37.wav","false","-1","","1","correct_rejection"
"","","","","","html-keyboard-response","73","394342","0.0-10.0-1.21","https://mcdermottlab.mit.edu/mturk_stimuli/bjmedina/mem_exp_atexts_2025/sequences/isi_16/len120/seq020_len120_s15_isi-1p0_0p0_16p0.json","11.28","true","nbgjl1qv11s","","null","<span style=""font-size: 40px"">+</span>","null","","","","","","","","","",""
"","","","","","audio-button-response","74","399054","0.0-10.0-2.21","https://mcdermottlab.mit.edu/mturk_stimuli/bjmedina/mem_exp_atexts_2025/sequences/isi_16/len120/seq020_len120_s15_isi-1p0_0p0_16p0.json","11.28","true","nbgjl1qv11s","","2800","https://mcdermottlab.mit.edu/mturk_stimuli/bjmedina/mem_exp_atexts_2025/mem_stim_2.wav","0","main","","","false","mem_stim_2.wav","false","-1","","1","correct_rejection"
"","","","","","html-keyboard-response","75","399126","0.0-10.0-1.22","https://mcdermottlab.mit.edu/mturk_stimuli/bjmedina/mem_exp_atexts_2025/sequences/isi_16/len120/seq020_len120_s15_isi-1p0_0p0_16p0.json","11.28","true","nbgjl1qv11s","","null","<span style=""font-size: 40px"">+</span>","null","","","","","","","","","",""
"","","","","","audio-button-response","76","402372","0.0-10.0-2.22","https://mcdermottlab.mit.edu/mturk_stimuli/bjmedina/mem_exp_atexts_2025/sequences/isi_16/len120/seq020_len120_s15_isi-1p0_0p0_16p0.json","11.28","true","nbgjl1qv11s","","2749","https://mcdermottlab.mit.edu/mturk_stimuli/bjmedina/mem_exp_atexts_2025/mem_stim_60.wav","0","main","","","false","mem_stim_60.wav","false","-1","","1","correct_rejection"
"","","","","","html-keyboard-response","77","402443","0.0-10.0-1.23","https://mcdermottlab.mit.edu/mturk_stimuli/bjmedina/mem_exp_atexts_2025/sequences/isi_16/len120/seq020_len120_s15_isi-1p0_0p0_16p0.json","11.28","true","nbgjl1qv11s","","null","<span style=""font-size: 40px"">+</span>","null","","","","","","","","","",""
"","","","","","audio-button-response","78","406167","0.0-10.0-2.23","https://mcdermottlab.mit.edu/mturk_stimuli/bjmedina/mem_exp_atexts_2025/sequences/isi_16/len120/seq020_len120_s15_isi-1p0_0p0_16p0.json","11.28","true","nbgjl1qv11s","","2872","https://mcdermottlab.mit.edu/mturk_stimuli/bjmedina/mem_exp_atexts_2025/mem_stim_12.wav","0","main","","","false","mem_stim_12.wav","false","-1","","1","correct_rejection"
"","","","","","html-keyboard-response","79","406225","0.0-10.0-1.24","https://mcdermottlab.mit.edu/mturk_stimuli/bjmedina/mem_exp_atexts_2025/sequences/isi_16/len120/seq020_len120_s15_isi-1p0_0p0_16p0.json","11.28","true","nbgjl1qv11s","","null","<span style=""font-size: 40px"">+</span>","null","","","","","","","","","",""
"","","","","","audio-button-response","80","409980","0.0-10.0-2.24","https://mcdermottlab.mit.edu/mturk_stimuli/bjmedina/mem_exp_atexts_2025/sequences/isi_16/len120/seq020_len120_s15_isi-1p0_0p0_16p0.json","11.28","true","nbgjl1qv11s","","3131","https://mcdermottlab.mit.edu/mturk_stimuli/bjmedina/mem_exp_atexts_2025/mem_stim_28.wav","0","main","","","false","mem_stim_28.wav","false","-1","","1","correct_rejection"
"","","","","","html-keyboard-response","81","410039","0.0-10.0-1.25","https://mcdermottlab.mit.edu/mturk_stimuli/bjmedina/mem_exp_atexts_2025/sequences/isi_16/len120/seq020_len120_s15_isi-1p0_0p0_16p0.json","11.28","true","nbgjl1qv11s","","null","<span style=""font-size: 40px"">+</span>","null","","","","","","","","","",""
"","","","","","audio-button-response","82","413562","0.0-10.0-2.25","https://mcdermottlab.mit.edu/mturk_stimuli/bjmedina/mem_exp_atexts_2025/sequences/isi_16/len120/seq020_len120_s15_isi-1p0_0p0_16p0.json","11.28","true","nbgjl1qv11s","","2851","https://mcdermottlab.mit.edu/mturk_stimuli/bjmedina/mem_exp_atexts_2025/mem_stim_3.wav","0","main","","","false","mem_stim_3.wav","false","-1","","1","correct_rejection"
"","","","","","html-keyboard-response","83","413622","0.0-10.0-1.26","https://mcdermottlab.mit.edu/mturk_stimuli/bjmedina/mem_exp_atexts_2025/sequences/isi_16/len120/seq020_len120_s15_isi-1p0_0p0_16p0.json","11.28","true","nbgjl1qv11s","","null","<span style=""font-size: 40px"">+</span>","null","","","","","","","","","",""
"","","","","","audio-button-response","84","417328","0.0-10.0-2.26","https://mcdermottlab.mit.edu/mturk_stimuli/bjmedina/mem_exp_atexts_2025/sequences/isi_16/len120/seq020_len120_s15_isi-1p0_0p0_16p0.json","11.28","true","nbgjl1qv11s","","2800","https://mcdermottlab.mit.edu/mturk_stimuli/bjmedina/mem_exp_atexts_2025/mem_stim_7.wav","0","main","","","false","mem_stim_7.wav","false","-1","","1","correct_rejection"
"","","","","","html-keyboard-response","85","417387","0.0-10.0-1.27","https://mcdermottlab.mit.edu/mturk_stimuli/bjmedina/mem_exp_atexts_2025/sequences/isi_16/len120/seq020_len120_s15_isi-1p0_0p0_16p0.json","11.28","true","nbgjl1qv11s","","null","<span style=""font-size: 40px"">+</span>","null","","","","","","","","","",""
"","","","","","audio-button-response","86","421194","0.0-10.0-2.27","https://mcdermottlab.mit.edu/mturk_stimuli/bjmedina/mem_exp_atexts_2025/sequences/isi_16/len120/seq020_len120_s15_isi-1p0_0p0_16p0.json","11.28","true","nbgjl1qv11s","","3181","https://mcdermottlab.mit.edu/mturk_stimuli/bjmedina/mem_exp_atexts_2025/mem_stim_48.wav","2","main","","","false","mem_stim_48.wav","false","-1","","1","correct_rejection"
"","","","","","html-keyboard-response","87","421254","0.0-10.0-1.28","https://mcdermottlab.mit.edu/mturk_stimuli/bjmedina/mem_exp_atexts_2025/sequences/isi_16/len120/seq020_len120_s15_isi-1p0_0p0_16p0.json","11.28","true","nbgjl1qv11s","","null","<span style=""font-size: 40px"">+</span>","null","","","","","","","","","",""
"","","","","","audio-button-response","88","424302","0.0-10.0-2.28","https://mcdermottlab.mit.edu/mturk_stimuli/bjmedina/mem_exp_atexts_2025/sequences/isi_16/len120/seq020_len120_s15_isi-1p0_0p0_16p0.json","11.28","true","nbgjl1qv11s","","2499","https://mcdermottlab.mit.edu/mturk_stimuli/bjmedina/mem_exp_atexts_2025/mem_stim_47.wav","2","main","","","false","mem_stim_47.wav","false","-1","","1","correct_rejection"
"","","","","","html-keyboard-response","89","424370","0.0-10.0-1.29","https://mcdermottlab.mit.edu/mturk_stimuli/bjmedina/mem_exp_atexts_2025/sequences/isi_16/len120/seq020_len120_s15_isi-1p0_0p0_16p0.json","11.28","true","nbgjl1qv11s","","null","<span style=""font-size: 40px"">+</span>","null","","","","","","","","","",""
"","","","","","audio-button-response","90","428044","0.0-10.0-2.29","https://mcdermottlab.mit.edu/mturk_stimuli/bjmedina/mem_exp_atexts_2025/sequences/isi_16/len120/seq020_len120_s15_isi-1p0_0p0_16p0.json","11.28","true","nbgjl1qv11s","","2981","https://mcdermottlab.mit.edu/mturk_stimuli/bjmedina/mem_exp_atexts_2025/mem_stim_21.wav","0","main","","","false","mem_stim_21.wav","false","-1","","1","correct_rejection"
"","","","","","html-keyboard-response","91","428116","0.0-10.0-1.30","https://mcdermottlab.mit.edu/mturk_stimuli/bjmedina/mem_exp_atexts_2025/sequences/isi_16/len120/seq020_len120_s15_isi-1p0_0p0_16p0.json","11.28","true","nbgjl1qv11s","","null","<span style=""font-size: 40px"">+</span>","null","","","","","","","","","",""
"","","","","","audio-button-response","92","433184","0.0-10.0-2.30","https://mcdermottlab.mit.edu/mturk_stimuli/bjmedina/mem_exp_atexts_2025/sequences/isi_16/len120/seq020_len120_s15_isi-1p0_0p0_16p0.json","11.28","true","nbgjl1qv11s","","3840","https://mcdermottlab.mit.edu/mturk_stimuli/bjmedina/mem_exp_atexts_2025/mem_stim_16.wav","0","main","","","false","mem_stim_16.wav","false","-1","","1","correct_rejection"
"","","","","","html-keyboard-response","93","433249","0.0-10.0-1.31","https://mcdermottlab.mit.edu/mturk_stimuli/bjmedina/mem_exp_atexts_2025/sequences/isi_16/len120/seq020_len120_s15_isi-1p0_0p0_16p0.json","11.28","true","nbgjl1qv11s","","null","<span style=""font-size: 40px"">+</span>","null","","","","","","","","","",""
"","","","","","audio-button-response","94","435932","0.0-10.0-2.31","https://mcdermottlab.mit.edu/mturk_stimuli/bjmedina/mem_exp_atexts_2025/sequences/isi_16/len120/seq020_len120_s15_isi-1p0_0p0_16p0.json","11.28","true","nbgjl1qv11s","","2680","https://mcdermottlab.mit.edu/mturk_stimuli/bjmedina/mem_exp_atexts_2025/mem_stim_5.wav","0","main","","","true","mem_stim_5.wav","false","16","","0","miss"
"","","","","","html-keyboard-response","95","436000","0.0-10.0-1.32","https://mcdermottlab.mit.edu/mturk_stimuli/bjmedina/mem_exp_atexts_2025/sequences/isi_16/len120/seq020_len120_s15_isi-1p0_0p0_16p0.json","11.28","true","nbgjl1qv11s","","null","<span style=""font-size: 40px"">+</span>","null","","","","","","","","","",""
"","","","","","audio-button-response","96","439806","0.0-10.0-2.32","https://mcdermottlab.mit.edu/mturk_stimuli/bjmedina/mem_exp_atexts_2025/sequences/isi_16/len120/seq020_len120_s15_isi-1p0_0p0_16p0.json","11.28","true","nbgjl1qv11s","","2720","https://mcdermottlab.mit.edu/mturk_stimuli/bjmedina/mem_exp_atexts_2025/mem_stim_55.wav","0","main","","","false","mem_stim_55.wav","false","-1","","1","correct_rejection"
"","","","","","html-keyboard-response","97","439864","0.0-10.0-1.33","https://mcdermottlab.mit.edu/mturk_stimuli/bjmedina/mem_exp_atexts_2025/sequences/isi_16/len120/seq020_len120_s15_isi-1p0_0p0_16p0.json","11.28","true","nbgjl1qv11s","","null","<span style=""font-size: 40px"">+</span>","null","","","","","","","","","",""
"","","","","","audio-button-response","98","445600","0.0-10.0-2.33","https://mcdermottlab.mit.edu/mturk_stimuli/bjmedina/mem_exp_atexts_2025/sequences/isi_16/len120/seq020_len120_s15_isi-1p0_0p0_16p0.json","11.28","true","nbgjl1qv11s","","2712","https://mcdermottlab.mit.edu/mturk_stimuli/bjmedina/mem_exp_atexts_2025/mem_stim_76.wav","3","main","","","false","mem_stim_76.wav","false","-1","","1","correct_rejection"
"","","","","","html-keyboard-response","99","445664","0.0-10.0-1.34","https://mcdermottlab.mit.edu/mturk_stimuli/bjmedina/mem_exp_atexts_2025/sequences/isi_16/len120/seq020_len120_s15_isi-1p0_0p0_16p0.json","11.28","true","nbgjl1qv11s","","null","<span style=""font-size: 40px"">+</span>","null","","","","","","","","","",""
"","","","","","audio-button-response","100","448162","0.0-10.0-2.34","https://mcdermottlab.mit.edu/mturk_stimuli/bjmedina/mem_exp_atexts_2025/sequences/isi_16/len120/seq020_len120_s15_isi-1p0_0p0_16p0.json","11.28","true","nbgjl1qv11s","","2501","https://mcdermottlab.mit.edu/mturk_stimuli/bjmedina/mem_exp_atexts_2025/mem_stim_76.wav","3","main","","","true","mem_stim_76.wav","true","0","","0","miss"
"","","","","","html-keyboard-response","101","448220","0.0-10.0-1.35","https://mcdermottlab.mit.edu/mturk_stimuli/bjmedina/mem_exp_atexts_2025/sequences/isi_16/len120/seq020_len120_s15_isi-1p0_0p0_16p0.json","11.28","true","nbgjl1qv11s","","null","<span style=""font-size: 40px"">+</span>","null","","","","","","","","","",""
"","","","","","audio-button-response","102","455508","0.0-10.0-2.35","https://mcdermottlab.mit.edu/mturk_stimuli/bjmedina/mem_exp_atexts_2025/sequences/isi_16/len120/seq020_len120_s15_isi-1p0_0p0_16p0.json","11.28","true","nbgjl1qv11s","","4240","https://mcdermottlab.mit.edu/mturk_stimuli/bjmedina/mem_exp_atexts_2025/mem_stim_26.wav","2","main","","","false","mem_stim_26.wav","false","-1","","1","correct_rejection"
"","","","","","html-keyboard-response","103","455579","0.0-10.0-1.36","https://mcdermottlab.mit.edu/mturk_stimuli/bjmedina/mem_exp_atexts_2025/sequences/isi_16/len120/seq020_len120_s15_isi-1p0_0p0_16p0.json","11.28","true","nbgjl1qv11s","","null","<span style=""font-size: 40px"">+</span>","null","","","","","","","","","",""
"","","","","","audio-button-response","104","463560","0.0-10.0-2.36","https://mcdermottlab.mit.edu/mturk_stimuli/bjmedina/mem_exp_atexts_2025/sequences/isi_16/len120/seq020_len120_s15_isi-1p0_0p0_16p0.json","11.28","true","nbgjl1qv11s","","4931","https://mcdermottlab.mit.edu/mturk_stimuli/bjmedina/mem_exp_atexts_2025/mem_stim_51.wav","0","main","","","false","mem_stim_51.wav","false","-1","","1","correct_rejection"
"","","","","","html-keyboard-response","105","463628","0.0-10.0-1.37","https://mcdermottlab.mit.edu/mturk_stimuli/bjmedina/mem_exp_atexts_2025/sequences/isi_16/len120/seq020_len120_s15_isi-1p0_0p0_16p0.json","11.28","true","nbgjl1qv11s","","null","<span style=""font-size: 40px"">+</span>","null","","","","","","","","","",""
"","","","","","audio-button-response","106","469218","0.0-10.0-2.37","https://mcdermottlab.mit.edu/mturk_stimuli/bjmedina/mem_exp_atexts_2025/sequences/isi_16/len120/seq020_len120_s15_isi-1p0_0p0_16p0.json","11.28","true","nbgjl1qv11s","","2699","https://mcdermottlab.mit.edu/mturk_stimuli/bjmedina/mem_exp_atexts_2025/mem_stim_22.wav","2","main","","","false","mem_stim_22.wav","false","-1","","1","correct_rejection"
"","","","","","html-keyboard-response","107","469292","0.0-10.0-1.38","https://mcdermottlab.mit.edu/mturk_stimuli/bjmedina/mem_exp_atexts_2025/sequences/isi_16/len120/seq020_len120_s15_isi-1p0_0p0_16p0.json","11.28","true","nbgjl1qv11s","","null","<span style=""font-size: 40px"">+</span>","null","","","","","","","","","",""
"","","","","","audio-button-response","108","473082","0.0-10.0-2.38","https://mcdermottlab.mit.edu/mturk_stimuli/bjmedina/mem_exp_atexts_2025/sequences/isi_16/len120/seq020_len120_s15_isi-1p0_0p0_16p0.json","11.28","true","nbgjl1qv11s","","3792","https://mcdermottlab.mit.edu/mturk_stimuli/bjmedina/mem_exp_atexts_2025/mem_stim_2.wav","1","main","","","true","mem_stim_2.wav","false","16","","1","hit"
"","","","","","html-keyboard-response","109","473141","0.0-10.0-1.39","https://mcdermottlab.mit.edu/mturk_stimuli/bjmedina/mem_exp_atexts_2025/sequences/isi_16/len120/seq020_len120_s15_isi-1p0_0p0_16p0.json","11.28","true","nbgjl1qv11s","","null","<span style=""font-size: 40px"">+</span>","null","","","","","","","","","",""
"","","","","","audio-button-response","110","477122","0.0-10.0-2.39","https://mcdermottlab.mit.edu/mturk_stimuli/bjmedina/mem_exp_atexts_2025/sequences/isi_16/len120/seq020_len120_s15_isi-1p0_0p0_16p0.json","11.28","true","nbgjl1qv11s","","3160","https://mcdermottlab.mit.edu/mturk_stimuli/bjmedina/mem_exp_atexts_2025/mem_stim_38.wav","3","main","","","false","mem_stim_38.wav","false","-1","","1","correct_rejection"
"","","","","","html-keyboard-response","111","477189","0.0-10.0-1.40","https://mcdermottlab.mit.edu/mturk_stimuli/bjmedina/mem_exp_atexts_2025/sequences/isi_16/len120/seq020_len120_s15_isi-1p0_0p0_16p0.json","11.28","true","nbgjl1qv11s","","null","<span style=""font-size: 40px"">+</span>","null","","","","","","","","","",""
"","","","","","audio-button-response","112","479914","0.0-10.0-2.40","https://mcdermottlab.mit.edu/mturk_stimuli/bjmedina/mem_exp_atexts_2025/sequences/isi_16/len120/seq020_len120_s15_isi-1p0_0p0_16p0.json","11.28","true","nbgjl1qv11s","","2720","https://mcdermottlab.mit.edu/mturk_stimuli/bjmedina/mem_exp_atexts_2025/mem_stim_12.wav","3","main","","","true","mem_stim_12.wav","false","16","","0","miss"
"","","","","","html-keyboard-response","113","479987","0.0-10.0-1.41","https://mcdermottlab.mit.edu/mturk_stimuli/bjmedina/mem_exp_atexts_2025/sequences/isi_16/len120/seq020_len120_s15_isi-1p0_0p0_16p0.json","11.28","true","nbgjl1qv11s","","null","<span style=""font-size: 40px"">+</span>","null","","","","","","","","","",""
"","","","","","audio-button-response","114","482582","0.0-10.0-2.41","https://mcdermottlab.mit.edu/mturk_stimuli/bjmedina/mem_exp_atexts_2025/sequences/isi_16/len120/seq020_len120_s15_isi-1p0_0p0_16p0.json","11.28","true","nbgjl1qv11s","","2589","https://mcdermottlab.mit.edu/mturk_stimuli/bjmedina/mem_exp_atexts_2025/mem_stim_28.wav","3","main","","","true","mem_stim_28.wav","false","16","","0","miss"
"","","","","","html-keyboard-response","115","482656","0.0-10.0-1.42","https://mcdermottlab.mit.edu/mturk_stimuli/bjmedina/mem_exp_atexts_2025/sequences/isi_16/len120/seq020_len120_s15_isi-1p0_0p0_16p0.json","11.28","true","nbgjl1qv11s","","null","<span style=""font-size: 40px"">+</span>","null","","","","","","","","","",""
"","","","","","audio-button-response","116","485210","0.0-10.0-2.42","https://mcdermottlab.mit.edu/mturk_stimuli/bjmedina/mem_exp_atexts_2025/sequences/isi_16/len120/seq020_len120_s15_isi-1p0_0p0_16p0.json","11.28","true","nbgjl1qv11s","","2560","https://mcdermottlab.mit.edu/mturk_stimuli/bjmedina/mem_exp_atexts_2025/mem_stim_3.wav","3","main","","","true","mem_stim_3.wav","false","16","","0","miss"
"","","","","","html-keyboard-response","117","485271","0.0-10.0-1.43","https://mcdermottlab.mit.edu/mturk_stimuli/bjmedina/mem_exp_atexts_2025/sequences/isi_16/len120/seq020_len120_s15_isi-1p0_0p0_16p0.json","11.28","true","nbgjl1qv11s","","null","<span style=""font-size: 40px"">+</span>","null","","","","","","","","","",""
"","","","","","audio-button-response","118","487782","0.0-10.0-2.43","https://mcdermottlab.mit.edu/mturk_stimuli/bjmedina/mem_exp_atexts_2025/sequences/isi_16/len120/seq020_len120_s15_isi-1p0_0p0_16p0.json","11.28","true","nbgjl1qv11s","","2509","https://mcdermottlab.mit.edu/mturk_stimuli/bjmedina/mem_exp_atexts_2025/mem_stim_7.wav","3","main","","","true","mem_stim_7.wav","false","16","","0","miss"
"","","","","","html-keyboard-response","119","487854","0.0-10.0-1.44","https://mcdermottlab.mit.edu/mturk_stimuli/bjmedina/mem_exp_atexts_2025/sequences/isi_16/len120/seq020_len120_s15_isi-1p0_0p0_16p0.json","11.28","true","nbgjl1qv11s","","null","<span style=""font-size: 40px"">+</span>","null","","","","","","","","","",""
"","","","","","audio-button-response","120","492402","0.0-10.0-2.44","https://mcdermottlab.mit.edu/mturk_stimuli/bjmedina/mem_exp_atexts_2025/sequences/isi_16/len120/seq020_len120_s15_isi-1p0_0p0_16p0.json","11.28","true","nbgjl1qv11s","","2491","https://mcdermottlab.mit.edu/mturk_stimuli/bjmedina/mem_exp_atexts_2025/mem_stim_29.wav","0","main","","","false","mem_stim_29.wav","false","-1","","1","correct_rejection"
"","","","","","html-keyboard-response","121","492470","0.0-10.0-1.45","https://mcdermottlab.mit.edu/mturk_stimuli/bjmedina/mem_exp_atexts_2025/sequences/isi_16/len120/seq020_len120_s15_isi-1p0_0p0_16p0.json","11.28","true","nbgjl1qv11s","","null","<span style=""font-size: 40px"">+</span>","null","","","","","","","","","",""
"","","","","","audio-button-response","122","495784","0.0-10.0-2.45","https://mcdermottlab.mit.edu/mturk_stimuli/bjmedina/mem_exp_atexts_2025/sequences/isi_16/len120/seq020_len120_s15_isi-1p0_0p0_16p0.json","11.28","true","nbgjl1qv11s","","2659","https://mcdermottlab.mit.edu/mturk_stimuli/bjmedina/mem_exp_atexts_2025/mem_stim_65.wav","0","main","","","false","mem_stim_65.wav","false","-1","","1","correct_rejection"
"","","","","","html-keyboard-response","123","495852","0.0-10.0-1.46","https://mcdermottlab.mit.edu/mturk_stimuli/bjmedina/mem_exp_atexts_2025/sequences/isi_16/len120/seq020_len120_s15_isi-1p0_0p0_16p0.json","11.28","true","nbgjl1qv11s","","null","<span style=""font-size: 40px"">+</span>","null","","","","","","","","","",""
"","","","","","audio-button-response","124","499154","0.0-10.0-2.46","https://mcdermottlab.mit.edu/mturk_stimuli/bjmedina/mem_exp_atexts_2025/sequences/isi_16/len120/seq020_len120_s15_isi-1p0_0p0_16p0.json","11.28","true","nbgjl1qv11s","","3301","https://mcdermottlab.mit.edu/mturk_stimuli/bjmedina/mem_exp_atexts_2025/mem_stim_21.wav","0","main","","","true","mem_stim_21.wav","false","16","","0","miss"
"","","","","","html-keyboard-response","125","499217","0.0-10.0-1.47","https://mcdermottlab.mit.edu/mturk_stimuli/bjmedina/mem_exp_atexts_2025/sequences/isi_16/len120/seq020_len120_s15_isi-1p0_0p0_16p0.json","11.28","true","nbgjl1qv11s","","null","<span style=""font-size: 40px"">+</span>","null","","","","","","","","","",""
"","","","","","audio-button-response","126","501786","0.0-10.0-2.47","https://mcdermottlab.mit.edu/mturk_stimuli/bjmedina/mem_exp_atexts_2025/sequences/isi_16/len120/seq020_len120_s15_isi-1p0_0p0_16p0.json","11.28","true","nbgjl1qv11s","","2571","https://mcdermottlab.mit.edu/mturk_stimuli/bjmedina/mem_exp_atexts_2025/mem_stim_16.wav","3","main","","","true","mem_stim_16.wav","false","16","","0","miss"
"","","","","","html-keyboard-response","127","501849","0.0-10.0-1.48","https://mcdermottlab.mit.edu/mturk_stimuli/bjmedina/mem_exp_atexts_2025/sequences/isi_16/len120/seq020_len120_s15_isi-1p0_0p0_16p0.json","11.28","true","nbgjl1qv11s","","null","<span style=""font-size: 40px"">+</span>","null","","","","","","","","","",""
"","","","","","audio-button-response","128","505174","0.0-10.0-2.48","https://mcdermottlab.mit.edu/mturk_stimuli/bjmedina/mem_exp_atexts_2025/sequences/isi_16/len120/seq020_len120_s15_isi-1p0_0p0_16p0.json","11.28","true","nbgjl1qv11s","","2499","https://mcdermottlab.mit.edu/mturk_stimuli/bjmedina/mem_exp_atexts_2025/mem_stim_63.wav","3","main","","","false","mem_stim_63.wav","false","-1","","1","correct_rejection"
"","","","","","html-keyboard-response","129","505234","0.0-10.0-1.49","https://mcdermottlab.mit.edu/mturk_stimuli/bjmedina/mem_exp_atexts_2025/sequences/isi_16/len120/seq020_len120_s15_isi-1p0_0p0_16p0.json","11.28","true","nbgjl1qv11s","","null","<span style=""font-size: 40px"">+</span>","null","","","","","","","","","",""
"","","","","","audio-button-response","130","509532","0.0-10.0-2.49","https://mcdermottlab.mit.edu/mturk_stimuli/bjmedina/mem_exp_atexts_2025/sequences/isi_16/len120/seq020_len120_s15_isi-1p0_0p0_16p0.json","11.28","true","nbgjl1qv11s","","2408","https://mcdermottlab.mit.edu/mturk_stimuli/bjmedina/mem_exp_atexts_2025/mem_stim_59.wav","3","main","","","false","mem_stim_59.wav","false","-1","","1","correct_rejection"
"","","","","","html-keyboard-response","131","509599","0.0-10.0-1.50","https://mcdermottlab.mit.edu/mturk_stimuli/bjmedina/mem_exp_atexts_2025/sequences/isi_16/len120/seq020_len120_s15_isi-1p0_0p0_16p0.json","11.28","true","nbgjl1qv11s","","null","<span style=""font-size: 40px"">+</span>","null","","","","","","","","","",""
"","","","","","audio-button-response","132","512736","0.0-10.0-2.50","https://mcdermottlab.mit.edu/mturk_stimuli/bjmedina/mem_exp_atexts_2025/sequences/isi_16/len120/seq020_len120_s15_isi-1p0_0p0_16p0.json","11.28","true","nbgjl1qv11s","","2589","https://mcdermottlab.mit.edu/mturk_stimuli/bjmedina/mem_exp_atexts_2025/mem_stim_27.wav","2","main","","","false","mem_stim_27.wav","false","-1","","1","correct_rejection"
"","","","","","html-keyboard-response","133","512799","0.0-10.0-1.51","https://mcdermottlab.mit.edu/mturk_stimuli/bjmedina/mem_exp_atexts_2025/sequences/isi_16/len120/seq020_len120_s15_isi-1p0_0p0_16p0.json","11.28","true","nbgjl1qv11s","","null","<span style=""font-size: 40px"">+</span>","null","","","","","","","","","",""
"","","","","","audio-button-response","134","516580","0.0-10.0-2.51","https://mcdermottlab.mit.edu/mturk_stimuli/bjmedina/mem_exp_atexts_2025/sequences/isi_16/len120/seq020_len120_s15_isi-1p0_0p0_16p0.json","11.28","true","nbgjl1qv11s","","2989","https://mcdermottlab.mit.edu/mturk_stimuli/bjmedina/mem_exp_atexts_2025/mem_stim_24.wav","0","main","","","false","mem_stim_24.wav","false","-1","","1","correct_rejection"
"","","","","","html-keyboard-response","135","516647","0.0-10.0-1.52","https://mcdermottlab.mit.edu/mturk_stimuli/bjmedina/mem_exp_atexts_2025/sequences/isi_16/len120/seq020_len120_s15_isi-1p0_0p0_16p0.json","11.28","true","nbgjl1qv11s","","null","<span style=""font-size: 40px"">+</span>","null","","","","","","","","","",""
"","","","","","audio-button-response","136","519994","0.0-10.0-2.52","https://mcdermottlab.mit.edu/mturk_stimuli/bjmedina/mem_exp_atexts_2025/sequences/isi_16/len120/seq020_len120_s15_isi-1p0_0p0_16p0.json","11.28","true","nbgjl1qv11s","","3341","https://mcdermottlab.mit.edu/mturk_stimuli/bjmedina/mem_exp_atexts_2025/mem_stim_26.wav","1","main","","","true","mem_stim_26.wav","false","16","","1","hit"
"","","","","","html-keyboard-response","137","520063","0.0-10.0-1.53","https://mcdermottlab.mit.edu/mturk_stimuli/bjmedina/mem_exp_atexts_2025/sequences/isi_16/len120/seq020_len120_s15_isi-1p0_0p0_16p0.json","11.28","true","nbgjl1qv11s","","null","<span style=""font-size: 40px"">+</span>","null","","","","","","","","","",""
"","","","","","audio-button-response","138","524858","0.0-10.0-2.53","https://mcdermottlab.mit.edu/mturk_stimuli/bjmedina/mem_exp_atexts_2025/sequences/isi_16/len120/seq020_len120_s15_isi-1p0_0p0_16p0.json","11.28","true","nbgjl1qv11s","","3939","https://mcdermottlab.mit.edu/mturk_stimuli/bjmedina/mem_exp_atexts_2025/mem_stim_69.wav","0","main","","","false","mem_stim_69.wav","false","-1","","1","correct_rejection"
"","","","","","html-keyboard-response","139","524927","0.0-10.0-1.54","https://mcdermottlab.mit.edu/mturk_stimuli/bjmedina/mem_exp_atexts_2025/sequences/isi_16/len120/seq020_len120_s15_isi-1p0_0p0_16p0.json","11.28","true","nbgjl1qv11s","","null","<span style=""font-size: 40px"">+</span>","null","","","","","","","","","",""
"","","","","","audio-button-response","140","527365","0.0-10.0-2.54","https://mcdermottlab.mit.edu/mturk_stimuli/bjmedina/mem_exp_atexts_2025/sequences/isi_16/len120/seq020_len120_s15_isi-1p0_0p0_16p0.json","11.28","true","nbgjl1qv11s","","2440","https://mcdermottlab.mit.edu/mturk_stimuli/bjmedina/mem_exp_atexts_2025/mem_stim_22.wav","3","main","","","true","mem_stim_22.wav","false","16","","0","miss"
"","","","","","html-keyboard-response","141","527426","0.0-10.0-1.55","https://mcdermottlab.mit.edu/mturk_stimuli/bjmedina/mem_exp_atexts_2025/sequences/isi_16/len120/seq020_len120_s15_isi-1p0_0p0_16p0.json","11.28","true","nbgjl1qv11s","","null","<span style=""font-size: 40px"">+</span>","null","","","","","","","","","",""
"","","","","","audio-button-response","142","531852","0.0-10.0-2.55","https://mcdermottlab.mit.edu/mturk_stimuli/bjmedina/mem_exp_atexts_2025/sequences/isi_16/len120/seq020_len120_s15_isi-1p0_0p0_16p0.json","11.28","true","nbgjl1qv11s","","2440","https://mcdermottlab.mit.edu/mturk_stimuli/bjmedina/mem_exp_atexts_2025/mem_stim_33.wav","3","main","","","false","mem_stim_33.wav","false","-1","","1","correct_rejection"
"","","","","","html-keyboard-response","143","531925","0.0-10.0-1.56","https://mcdermottlab.mit.edu/mturk_stimuli/bjmedina/mem_exp_atexts_2025/sequences/isi_16/len120/seq020_len120_s15_isi-1p0_0p0_16p0.json","11.28","true","nbgjl1qv11s","","null","<span style=""font-size: 40px"">+</span>","null","","","","","","","","","",""
"","","","","","audio-button-response","144","536954","0.0-10.0-2.56","https://mcdermottlab.mit.edu/mturk_stimuli/bjmedina/mem_exp_atexts_2025/sequences/isi_16/len120/seq020_len120_s15_isi-1p0_0p0_16p0.json","11.28","true","nbgjl1qv11s","","3891","https://mcdermottlab.mit.edu/mturk_stimuli/bjmedina/mem_exp_atexts_2025/mem_stim_1.wav","2","main","","","false","mem_stim_1.wav","false","-1","","1","correct_rejection"
"","","","","","html-keyboard-response","145","537024","0.0-10.0-1.57","https://mcdermottlab.mit.edu/mturk_stimuli/bjmedina/mem_exp_atexts_2025/sequences/isi_16/len120/seq020_len120_s15_isi-1p0_0p0_16p0.json","11.28","true","nbgjl1qv11s","","null","<span style=""font-size: 40px"">+</span>","null","","","","","","","","","",""
"","","","","","audio-button-response","146","541210","0.0-10.0-2.57","https://mcdermottlab.mit.edu/mturk_stimuli/bjmedina/mem_exp_atexts_2025/sequences/isi_16/len120/seq020_len120_s15_isi-1p0_0p0_16p0.json","11.28","true","nbgjl1qv11s","","3248","https://mcdermottlab.mit.edu/mturk_stimuli/bjmedina/mem_exp_atexts_2025/mem_stim_73.wav","1","main","","","false","mem_stim_73.wav","false","-1","","0","false_alarm"
"","","","","","html-keyboard-response","147","541274","0.0-10.0-1.58","https://mcdermottlab.mit.edu/mturk_stimuli/bjmedina/mem_exp_atexts_2025/sequences/isi_16/len120/seq020_len120_s15_isi-1p0_0p0_16p0.json","11.28","true","nbgjl1qv11s","","null","<span style=""font-size: 40px"">+</span>","null","","","","","","","","","",""
"","","","","","audio-button-response","148","543706","0.0-10.0-2.58","https://mcdermottlab.mit.edu/mturk_stimuli/bjmedina/mem_exp_atexts_2025/sequences/isi_16/len120/seq020_len120_s15_isi-1p0_0p0_16p0.json","11.28","true","nbgjl1qv11s","","2429","https://mcdermottlab.mit.edu/mturk_stimuli/bjmedina/mem_exp_atexts_2025/mem_stim_73.wav","3","main","","","true","mem_stim_73.wav","true","0","","0","miss"
"","","","","","html-keyboard-response","149","543773","0.0-10.0-1.59","https://mcdermottlab.mit.edu/mturk_stimuli/bjmedina/mem_exp_atexts_2025/sequences/isi_16/len120/seq020_len120_s15_isi-1p0_0p0_16p0.json","11.28","true","nbgjl1qv11s","","null","<span style=""font-size: 40px"">+</span>","null","","","","","","","","","",""
"","","","","","audio-button-response","150","548246","0.0-10.0-2.59","https://mcdermottlab.mit.edu/mturk_stimuli/bjmedina/mem_exp_atexts_2025/sequences/isi_16/len120/seq020_len120_s15_isi-1p0_0p0_16p0.json","11.28","true","nbgjl1qv11s","","2480","https://mcdermottlab.mit.edu/mturk_stimuli/bjmedina/mem_exp_atexts_2025/mem_stim_72.wav","0","main","","","false","mem_stim_72.wav","false","-1","","1","correct_rejection"
"","","","","","html-keyboard-response","151","548320","0.0-10.0-1.60","https://mcdermottlab.mit.edu/mturk_stimuli/bjmedina/mem_exp_atexts_2025/sequences/isi_16/len120/seq020_len120_s15_isi-1p0_0p0_16p0.json","11.28","true","nbgjl1qv11s","","null","<span style=""font-size: 40px"">+</span>","null","","","","","","","","","",""
"","","","","","audio-button-response","152","550769","0.0-10.0-2.60","https://mcdermottlab.mit.edu/mturk_stimuli/bjmedina/mem_exp_atexts_2025/sequences/isi_16/len120/seq020_len120_s15_isi-1p0_0p0_16p0.json","11.28","true","nbgjl1qv11s","","2448","https://mcdermottlab.mit.edu/mturk_stimuli/bjmedina/mem_exp_atexts_2025/mem_stim_72.wav","3","main","","","true","mem_stim_72.wav","true","0","","0","miss"
"","","","","","html-keyboard-response","153","550839","0.0-10.0-1.61","https://mcdermottlab.mit.edu/mturk_stimuli/bjmedina/mem_exp_atexts_2025/sequences/isi_16/len120/seq020_len120_s15_isi-1p0_0p0_16p0.json","11.28","true","nbgjl1qv11s","","null","<span style=""font-size: 40px"">+</span>","null","","","","","","","","","",""
"","","","","","audio-button-response","154","553624","0.0-10.0-2.61","https://mcdermottlab.mit.edu/mturk_stimuli/bjmedina/mem_exp_atexts_2025/sequences/isi_16/len120/seq020_len120_s15_isi-1p0_0p0_16p0.json","11.28","true","nbgjl1qv11s","","2779","https://mcdermottlab.mit.edu/mturk_stimuli/bjmedina/mem_exp_atexts_2025/mem_stim_29.wav","3","main","","","true","mem_stim_29.wav","false","16","","0","miss"
"","","","","","html-keyboard-response","155","553687","0.0-10.0-1.62","https://mcdermottlab.mit.edu/mturk_stimuli/bjmedina/mem_exp_atexts_2025/sequences/isi_16/len120/seq020_len120_s15_isi-1p0_0p0_16p0.json","11.28","true","nbgjl1qv11s","","null","<span style=""font-size: 40px"">+</span>","null","","","","","","","","","",""
"","","","","","audio-button-response","156","557156","0.0-10.0-2.62","https://mcdermottlab.mit.edu/mturk_stimuli/bjmedina/mem_exp_atexts_2025/sequences/isi_16/len120/seq020_len120_s15_isi-1p0_0p0_16p0.json","11.28","true","nbgjl1qv11s","","2509","https://mcdermottlab.mit.edu/mturk_stimuli/bjmedina/mem_exp_atexts_2025/mem_stim_32.wav","3","main","","","false","mem_stim_32.wav","false","-1","","1","correct_rejection"
"","","","","","html-keyboard-response","157","557219","0.0-10.0-1.63","https://mcdermottlab.mit.edu/mturk_stimuli/bjmedina/mem_exp_atexts_2025/sequences/isi_16/len120/seq020_len120_s15_isi-1p0_0p0_16p0.json","11.28","true","nbgjl1qv11s","","null","<span style=""font-size: 40px"">+</span>","null","","","","","","","","","",""
"","","","","","audio-button-response","158","562542","0.0-10.0-2.63","https://mcdermottlab.mit.edu/mturk_stimuli/bjmedina/mem_exp_atexts_2025/sequences/isi_16/len120/seq020_len120_s15_isi-1p0_0p0_16p0.json","11.28","true","nbgjl1qv11s","","3291","https://mcdermottlab.mit.edu/mturk_stimuli/bjmedina/mem_exp_atexts_2025/mem_stim_79.wav","0","main","","","false","mem_stim_79.wav","false","-1","","1","correct_rejection"
"","","","","","html-keyboard-response","159","562617","0.0-10.0-1.64","https://mcdermottlab.mit.edu/mturk_stimuli/bjmedina/mem_exp_atexts_2025/sequences/isi_16/len120/seq020_len120_s15_isi-1p0_0p0_16p0.json","11.28","true","nbgjl1qv11s","","null","<span style=""font-size: 40px"">+</span>","null","","","","","","","","","",""
"","","","","","audio-button-response","160","565044","0.0-10.0-2.64","https://mcdermottlab.mit.edu/mturk_stimuli/bjmedina/mem_exp_atexts_2025/sequences/isi_16/len120/seq020_len120_s15_isi-1p0_0p0_16p0.json","11.28","true","nbgjl1qv11s","","2432","https://mcdermottlab.mit.edu/mturk_stimuli/bjmedina/mem_exp_atexts_2025/mem_stim_79.wav","3","main","","","true","mem_stim_79.wav","true","0","","0","miss"
"","","","","","html-keyboard-response","161","565117","0.0-10.0-1.65","https://mcdermottlab.mit.edu/mturk_stimuli/bjmedina/mem_exp_atexts_2025/sequences/isi_16/len120/seq020_len120_s15_isi-1p0_0p0_16p0.json","11.28","true","nbgjl1qv11s","","null","<span style=""font-size: 40px"">+</span>","null","","","","","","","","","",""
"","","","","","audio-button-response","162","570304","0.0-10.0-2.65","https://mcdermottlab.mit.edu/mturk_stimuli/bjmedina/mem_exp_atexts_2025/sequences/isi_16/len120/seq020_len120_s15_isi-1p0_0p0_16p0.json","11.28","true","nbgjl1qv11s","","2491","https://mcdermottlab.mit.edu/mturk_stimuli/bjmedina/mem_exp_atexts_2025/mem_stim_45.wav","3","main","","","false","mem_stim_45.wav","false","-1","","1","correct_rejection"
"","","","","","html-keyboard-response","163","570366","0.0-10.0-1.66","https://mcdermottlab.mit.edu/mturk_stimuli/bjmedina/mem_exp_atexts_2025/sequences/isi_16/len120/seq020_len120_s15_isi-1p0_0p0_16p0.json","11.28","true","nbgjl1qv11s","","null","<span style=""font-size: 40px"">+</span>","null","","","","","","","","","",""
"","","","","","audio-button-response","164","575142","0.0-10.0-2.66","https://mcdermottlab.mit.edu/mturk_stimuli/bjmedina/mem_exp_atexts_2025/sequences/isi_16/len120/seq020_len120_s15_isi-1p0_0p0_16p0.json","11.28","true","nbgjl1qv11s","","2419","https://mcdermottlab.mit.edu/mturk_stimuli/bjmedina/mem_exp_atexts_2025/mem_stim_17.wav","3","main","","","false","mem_stim_17.wav","false","-1","","1","correct_rejection"
"","","","","","html-keyboard-response","165","575216","0.0-10.0-1.67","https://mcdermottlab.mit.edu/mturk_stimuli/bjmedina/mem_exp_atexts_2025/sequences/isi_16/len120/seq020_len120_s15_isi-1p0_0p0_16p0.json","11.28","true","nbgjl1qv11s","","null","<span style=""font-size: 40px"">+</span>","null","","","","","","","","","",""
"","","","","","audio-button-response","166","577626","0.0-10.0-2.67","https://mcdermottlab.mit.edu/mturk_stimuli/bjmedina/mem_exp_atexts_2025/sequences/isi_16/len120/seq020_len120_s15_isi-1p0_0p0_16p0.json","11.28","true","nbgjl1qv11s","","2411","https://mcdermottlab.mit.edu/mturk_stimuli/bjmedina/mem_exp_atexts_2025/mem_stim_27.wav","3","main","","","true","mem_stim_27.wav","false","16","","0","miss"
"","","","","","html-keyboard-response","167","577698","0.0-10.0-1.68","https://mcdermottlab.mit.edu/mturk_stimuli/bjmedina/mem_exp_atexts_2025/sequences/isi_16/len120/seq020_len120_s15_isi-1p0_0p0_16p0.json","11.28","true","nbgjl1qv11s","","null","<span style=""font-size: 40px"">+</span>","null","","","","","","","","","",""
"","","","","","audio-button-response","168","580706","0.0-10.0-2.68","https://mcdermottlab.mit.edu/mturk_stimuli/bjmedina/mem_exp_atexts_2025/sequences/isi_16/len120/seq020_len120_s15_isi-1p0_0p0_16p0.json","11.28","true","nbgjl1qv11s","","3000","https://mcdermottlab.mit.edu/mturk_stimuli/bjmedina/mem_exp_atexts_2025/mem_stim_24.wav","0","main","","","true","mem_stim_24.wav","false","16","","0","miss"
"","","","","","html-keyboard-response","169","580779","0.0-10.0-1.69","https://mcdermottlab.mit.edu/mturk_stimuli/bjmedina/mem_exp_atexts_2025/sequences/isi_16/len120/seq020_len120_s15_isi-1p0_0p0_16p0.json","11.28","true","nbgjl1qv11s","","null","<span style=""font-size: 40px"">+</span>","null","","","","","","","","","",""
"","","","","","audio-button-response","170","585551","0.0-10.0-2.69","https://mcdermottlab.mit.edu/mturk_stimuli/bjmedina/mem_exp_atexts_2025/sequences/isi_16/len120/seq020_len120_s15_isi-1p0_0p0_16p0.json","11.28","true","nbgjl1qv11s","","2829","https://mcdermottlab.mit.edu/mturk_stimuli/bjmedina/mem_exp_atexts_2025/mem_stim_71.wav","3","main","","","false","mem_stim_71.wav","false","-1","","1","correct_rejection"
"","","","","","html-keyboard-response","171","585613","0.0-10.0-1.70","https://mcdermottlab.mit.edu/mturk_stimuli/bjmedina/mem_exp_atexts_2025/sequences/isi_16/len120/seq020_len120_s15_isi-1p0_0p0_16p0.json","11.28","true","nbgjl1qv11s","","null","<span style=""font-size: 40px"">+</span>","null","","","","","","","","","",""
"","","","","","audio-button-response","172","587920","0.0-10.0-2.70","https://mcdermottlab.mit.edu/mturk_stimuli/bjmedina/mem_exp_atexts_2025/sequences/isi_16/len120/seq020_len120_s15_isi-1p0_0p0_16p0.json","11.28","true","nbgjl1qv11s","","2312","https://mcdermottlab.mit.edu/mturk_stimuli/bjmedina/mem_exp_atexts_2025/mem_stim_71.wav","3","main","","","true","mem_stim_71.wav","true","0","","0","miss"
"","","","","","html-keyboard-response","173","587979","0.0-10.0-1.71","https://mcdermottlab.mit.edu/mturk_stimuli/bjmedina/mem_exp_atexts_2025/sequences/isi_16/len120/seq020_len120_s15_isi-1p0_0p0_16p0.json","11.28","true","nbgjl1qv11s","","null","<span style=""font-size: 40px"">+</span>","null","","","","","","","","","",""
"","","","","","audio-button-response","174","591366","0.0-10.0-2.71","https://mcdermottlab.mit.edu/mturk_stimuli/bjmedina/mem_exp_atexts_2025/sequences/isi_16/len120/seq020_len120_s15_isi-1p0_0p0_16p0.json","11.28","true","nbgjl1qv11s","","2400","https://mcdermottlab.mit.edu/mturk_stimuli/bjmedina/mem_exp_atexts_2025/mem_stim_74.wav","3","main","","","false","mem_stim_74.wav","false","-1","","1","correct_rejection"
"","","","","","html-keyboard-response","175","591428","0.0-10.0-1.72","https://mcdermottlab.mit.edu/mturk_stimuli/bjmedina/mem_exp_atexts_2025/sequences/isi_16/len120/seq020_len120_s15_isi-1p0_0p0_16p0.json","11.28","true","nbgjl1qv11s","","null","<span style=""font-size: 40px"">+</span>","null","","","","","","","","","",""
"","","","","","audio-button-response","176","593736","0.0-10.0-2.72","https://mcdermottlab.mit.edu/mturk_stimuli/bjmedina/mem_exp_atexts_2025/sequences/isi_16/len120/seq020_len120_s15_isi-1p0_0p0_16p0.json","11.28","true","nbgjl1qv11s","","2299","https://mcdermottlab.mit.edu/mturk_stimuli/bjmedina/mem_exp_atexts_2025/mem_stim_74.wav","3","main","","","true","mem_stim_74.wav","true","0","","0","miss"
"","","","","","html-keyboard-response","177","593810","0.0-10.0-1.73","https://mcdermottlab.mit.edu/mturk_stimuli/bjmedina/mem_exp_atexts_2025/sequences/isi_16/len120/seq020_len120_s15_isi-1p0_0p0_16p0.json","11.28","true","nbgjl1qv11s","","null","<span style=""font-size: 40px"">+</span>","null","","","","","","","","","",""
"","","","","","audio-button-response","178","597739","0.0-10.0-2.73","https://mcdermottlab.mit.edu/mturk_stimuli/bjmedina/mem_exp_atexts_2025/sequences/isi_16/len120/seq020_len120_s15_isi-1p0_0p0_16p0.json","11.28","true","nbgjl1qv11s","","3931","https://mcdermottlab.mit.edu/mturk_stimuli/bjmedina/mem_exp_atexts_2025/mem_stim_1.wav","2","main","","","true","mem_stim_1.wav","false","16","","0","miss"
"","","","","","html-keyboard-response","179","597809","0.0-10.0-1.74","https://mcdermottlab.mit.edu/mturk_stimuli/bjmedina/mem_exp_atexts_2025/sequences/isi_16/len120/seq020_len120_s15_isi-1p0_0p0_16p0.json","11.28","true","nbgjl1qv11s","","null","<span style=""font-size: 40px"">+</span>","null","","","","","","","","","",""
"","","","","","audio-button-response","180","603110","0.0-10.0-2.74","https://mcdermottlab.mit.edu/mturk_stimuli/bjmedina/mem_exp_atexts_2025/sequences/isi_16/len120/seq020_len120_s15_isi-1p0_0p0_16p0.json","11.28","true","nbgjl1qv11s","","3421","https://mcdermottlab.mit.edu/mturk_stimuli/bjmedina/mem_exp_atexts_2025/mem_stim_77.wav","2","main","","","false","mem_stim_77.wav","false","-1","","1","correct_rejection"
"","","","","","html-keyboard-response","181","603176","0.0-10.0-1.75","https://mcdermottlab.mit.edu/mturk_stimuli/bjmedina/mem_exp_atexts_2025/sequences/isi_16/len120/seq020_len120_s15_isi-1p0_0p0_16p0.json","11.28","true","nbgjl1qv11s","","null","<span style=""font-size: 40px"">+</span>","null","","","","","","","","","",""
"","","","","","audio-button-response","182","605630","0.0-10.0-2.75","https://mcdermottlab.mit.edu/mturk_stimuli/bjmedina/mem_exp_atexts_2025/sequences/isi_16/len120/seq020_len120_s15_isi-1p0_0p0_16p0.json","11.28","true","nbgjl1qv11s","","2461","https://mcdermottlab.mit.edu/mturk_stimuli/bjmedina/mem_exp_atexts_2025/mem_stim_77.wav","3","main","","","true","mem_stim_77.wav","true","0","","0","miss"
"","","","","","html-keyboard-response","183","605691","0.0-10.0-1.76","https://mcdermottlab.mit.edu/mturk_stimuli/bjmedina/mem_exp_atexts_2025/sequences/isi_16/len120/seq020_len120_s15_isi-1p0_0p0_16p0.json","11.28","true","nbgjl1qv11s","","null","<span style=""font-size: 40px"">+</span>","null","","","","","","","","","",""
"","","","","","audio-button-response","184","612308","0.0-10.0-2.76","https://mcdermottlab.mit.edu/mturk_stimuli/bjmedina/mem_exp_atexts_2025/sequences/isi_16/len120/seq020_len120_s15_isi-1p0_0p0_16p0.json","11.28","true","nbgjl1qv11s","","3869","https://mcdermottlab.mit.edu/mturk_stimuli/bjmedina/mem_exp_atexts_2025/mem_stim_44.wav","3","main","","","false","mem_stim_44.wav","false","-1","","1","correct_rejection"
"","","","","","html-keyboard-response","185","612373","0.0-10.0-1.77","https://mcdermottlab.mit.edu/mturk_stimuli/bjmedina/mem_exp_atexts_2025/sequences/isi_16/len120/seq020_len120_s15_isi-1p0_0p0_16p0.json","11.28","true","nbgjl1qv11s","","null","<span style=""font-size: 40px"">+</span>","null","","","","","","","","","",""
"","","","","","audio-button-response","186","616849","0.0-10.0-2.77","https://mcdermottlab.mit.edu/mturk_stimuli/bjmedina/mem_exp_atexts_2025/sequences/isi_16/len120/seq020_len120_s15_isi-1p0_0p0_16p0.json","11.28","true","nbgjl1qv11s","","2480","https://mcdermottlab.mit.edu/mturk_stimuli/bjmedina/mem_exp_atexts_2025/mem_stim_78.wav","0","main","","","false","mem_stim_78.wav","false","-1","","1","correct_rejection"
"","","","","","html-keyboard-response","187","616922","0.0-10.0-1.78","https://mcdermottlab.mit.edu/mturk_stimuli/bjmedina/mem_exp_atexts_2025/sequences/isi_16/len120/seq020_len120_s15_isi-1p0_0p0_16p0.json","11.28","true","nbgjl1qv11s","","null","<span style=""font-size: 40px"">+</span>","null","","","","","","","","","",""
"","","","","","audio-button-response","188","619379","0.0-10.0-2.78","https://mcdermottlab.mit.edu/mturk_stimuli/bjmedina/mem_exp_atexts_2025/sequences/isi_16/len120/seq020_len120_s15_isi-1p0_0p0_16p0.json","11.28","true","nbgjl1qv11s","","2459","https://mcdermottlab.mit.edu/mturk_stimuli/bjmedina/mem_exp_atexts_2025/mem_stim_78.wav","3","main","","","true","mem_stim_78.wav","true","0","","0","miss"
"","","","","","html-keyboard-response","189","619454","0.0-10.0-1.79","https://mcdermottlab.mit.edu/mturk_stimuli/bjmedina/mem_exp_atexts_2025/sequences/isi_16/len120/seq020_len120_s15_isi-1p0_0p0_16p0.json","11.28","true","nbgjl1qv11s","","null","<span style=""font-size: 40px"">+</span>","null","","","","","","","","","",""
"","","","","","audio-button-response","190","624409","0.0-10.0-2.79","https://mcdermottlab.mit.edu/mturk_stimuli/bjmedina/mem_exp_atexts_2025/sequences/isi_16/len120/seq020_len120_s15_isi-1p0_0p0_16p0.json","11.28","true","nbgjl1qv11s","","2829","https://mcdermottlab.mit.edu/mturk_stimuli/bjmedina/mem_exp_atexts_2025/mem_stim_36.wav","0","main","","","false","mem_stim_36.wav","false","-1","","1","correct_rejection"
"","","","","","html-keyboard-response","191","624486","0.0-10.0-1.80","https://mcdermottlab.mit.edu/mturk_stimuli/bjmedina/mem_exp_atexts_2025/sequences/isi_16/len120/seq020_len120_s15_isi-1p0_0p0_16p0.json","11.28","true","nbgjl1qv11s","","null","<span style=""font-size: 40px"">+</span>","null","","","","","","","","","",""
"","","","","","audio-button-response","192","629022","0.0-10.0-2.80","https://mcdermottlab.mit.edu/mturk_stimuli/bjmedina/mem_exp_atexts_2025/sequences/isi_16/len120/seq020_len120_s15_isi-1p0_0p0_16p0.json","11.28","true","nbgjl1qv11s","","2539","https://mcdermottlab.mit.edu/mturk_stimuli/bjmedina/mem_exp_atexts_2025/mem_stim_23.wav","3","main","","","false","mem_stim_23.wav","false","-1","","1","correct_rejection"
"","","","","","html-keyboard-response","193","629085","0.0-10.0-1.81","https://mcdermottlab.mit.edu/mturk_stimuli/bjmedina/mem_exp_atexts_2025/sequences/isi_16/len120/seq020_len120_s15_isi-1p0_0p0_16p0.json","11.28","true","nbgjl1qv11s","","null","<span style=""font-size: 40px"">+</span>","null","","","","","","","","","",""
"","","","","","audio-button-response","194","633370","0.0-10.0-2.81","https://mcdermottlab.mit.edu/mturk_stimuli/bjmedina/mem_exp_atexts_2025/sequences/isi_16/len120/seq020_len120_s15_isi-1p0_0p0_16p0.json","11.28","true","nbgjl1qv11s","","3688","https://mcdermottlab.mit.edu/mturk_stimuli/bjmedina/mem_exp_atexts_2025/mem_stim_53.wav","0","main","","","false","mem_stim_53.wav","false","-1","","1","correct_rejection"
"","","","","","html-keyboard-response","195","633435","0.0-10.0-1.82","https://mcdermottlab.mit.edu/mturk_stimuli/bjmedina/mem_exp_atexts_2025/sequences/isi_16/len120/seq020_len120_s15_isi-1p0_0p0_16p0.json","11.28","true","nbgjl1qv11s","","null","<span style=""font-size: 40px"">+</span>","null","","","","","","","","","",""
"","","","","","audio-button-response","196","636979","0.0-10.0-2.82","https://mcdermottlab.mit.edu/mturk_stimuli/bjmedina/mem_exp_atexts_2025/sequences/isi_16/len120/seq020_len120_s15_isi-1p0_0p0_16p0.json","11.28","true","nbgjl1qv11s","","2909","https://mcdermottlab.mit.edu/mturk_stimuli/bjmedina/mem_exp_atexts_2025/mem_stim_25.wav","3","main","","","false","mem_stim_25.wav","false","-1","","1","correct_rejection"
"","","","","","html-keyboard-response","197","637049","0.0-10.0-1.83","https://mcdermottlab.mit.edu/mturk_stimuli/bjmedina/mem_exp_atexts_2025/sequences/isi_16/len120/seq020_len120_s15_isi-1p0_0p0_16p0.json","11.28","true","nbgjl1qv11s","","null","<span style=""font-size: 40px"">+</span>","null","","","","","","","","","",""
"","","","","","audio-button-response","198","639850","0.0-10.0-2.83","https://mcdermottlab.mit.edu/mturk_stimuli/bjmedina/mem_exp_atexts_2025/sequences/isi_16/len120/seq020_len120_s15_isi-1p0_0p0_16p0.json","11.28","true","nbgjl1qv11s","","2800","https://mcdermottlab.mit.edu/mturk_stimuli/bjmedina/mem_exp_atexts_2025/mem_stim_17.wav","3","main","","","true","mem_stim_17.wav","false","16","","0","miss"
"","","","","","html-keyboard-response","199","639916","0.0-10.0-1.84","https://mcdermottlab.mit.edu/mturk_stimuli/bjmedina/mem_exp_atexts_2025/sequences/isi_16/len120/seq020_len120_s15_isi-1p0_0p0_16p0.json","11.28","true","nbgjl1qv11s","","null","<span style=""font-size: 40px"">+</span>","null","","","","","","","","","",""
"","","","","","audio-button-response","200","645288","0.0-10.0-2.84","https://mcdermottlab.mit.edu/mturk_stimuli/bjmedina/mem_exp_atexts_2025/sequences/isi_16/len120/seq020_len120_s15_isi-1p0_0p0_16p0.json","11.28","true","nbgjl1qv11s","","4549","https://mcdermottlab.mit.edu/mturk_stimuli/bjmedina/mem_exp_atexts_2025/mem_stim_58.wav","2","main","","","false","mem_stim_58.wav","false","-1","","1","correct_rejection"
"","","","","","html-keyboard-response","201","645349","0.0-10.0-1.85","https://mcdermottlab.mit.edu/mturk_stimuli/bjmedina/mem_exp_atexts_2025/sequences/isi_16/len120/seq020_len120_s15_isi-1p0_0p0_16p0.json","11.28","true","nbgjl1qv11s","","null","<span style=""font-size: 40px"">+</span>","null","","","","","","","","","",""
"","","","","","audio-button-response","202","649914","0.0-10.0-2.85","https://mcdermottlab.mit.edu/mturk_stimuli/bjmedina/mem_exp_atexts_2025/sequences/isi_16/len120/seq020_len120_s15_isi-1p0_0p0_16p0.json","11.28","true","nbgjl1qv11s","","2549","https://mcdermottlab.mit.edu/mturk_stimuli/bjmedina/mem_exp_atexts_2025/mem_stim_15.wav","3","main","","","false","mem_stim_15.wav","false","-1","","1","correct_rejection"
"","","","","","html-keyboard-response","203","649979","0.0-10.0-1.86","https://mcdermottlab.mit.edu/mturk_stimuli/bjmedina/mem_exp_atexts_2025/sequences/isi_16/len120/seq020_len120_s15_isi-1p0_0p0_16p0.json","11.28","true","nbgjl1qv11s","","null","<span style=""font-size: 40px"">+</span>","null","","","","","","","","","",""
"","","","","","audio-button-response","204","654751","0.0-10.0-2.86","https://mcdermottlab.mit.edu/mturk_stimuli/bjmedina/mem_exp_atexts_2025/sequences/isi_16/len120/seq020_len120_s15_isi-1p0_0p0_16p0.json","11.28","true","nbgjl1qv11s","","2720","https://mcdermottlab.mit.edu/mturk_stimuli/bjmedina/mem_exp_atexts_2025/mem_stim_0.wav","0","main","","","false","mem_stim_0.wav","false","-1","","1","correct_rejection"
"","","","","","html-keyboard-response","205","654814","0.0-10.0-1.87","https://mcdermottlab.mit.edu/mturk_stimuli/bjmedina/mem_exp_atexts_2025/sequences/isi_16/len120/seq020_len120_s15_isi-1p0_0p0_16p0.json","11.28","true","nbgjl1qv11s","","null","<span style=""font-size: 40px"">+</span>","null","","","","","","","","","",""
"","","","","","audio-button-response","206","658409","0.0-10.0-2.87","https://mcdermottlab.mit.edu/mturk_stimuli/bjmedina/mem_exp_atexts_2025/sequences/isi_16/len120/seq020_len120_s15_isi-1p0_0p0_16p0.json","11.28","true","nbgjl1qv11s","","2968","https://mcdermottlab.mit.edu/mturk_stimuli/bjmedina/mem_exp_atexts_2025/mem_stim_10.wav","2","main","","","false","mem_stim_10.wav","false","-1","","1","correct_rejection"
"","","","","","html-keyboard-response","207","658472","0.0-10.0-1.88","https://mcdermottlab.mit.edu/mturk_stimuli/bjmedina/mem_exp_atexts_2025/sequences/isi_16/len120/seq020_len120_s15_isi-1p0_0p0_16p0.json","11.28","true","nbgjl1qv11s","","null","<span style=""font-size: 40px"">+</span>","null","","","","","","","","","",""
"","","","","","audio-button-response","208","661557","0.0-10.0-2.88","https://mcdermottlab.mit.edu/mturk_stimuli/bjmedina/mem_exp_atexts_2025/sequences/isi_16/len120/seq020_len120_s15_isi-1p0_0p0_16p0.json","11.28","true","nbgjl1qv11s","","2571","https://mcdermottlab.mit.edu/mturk_stimuli/bjmedina/mem_exp_atexts_2025/mem_stim_68.wav","0","main","","","false","mem_stim_68.wav","false","-1","","1","correct_rejection"
"","","","","","html-keyboard-response","209","661629","0.0-10.0-1.89","https://mcdermottlab.mit.edu/mturk_stimuli/bjmedina/mem_exp_atexts_2025/sequences/isi_16/len120/seq020_len120_s15_isi-1p0_0p0_16p0.json","11.28","true","nbgjl1qv11s","","null","<span style=""font-size: 40px"">+</span>","null","","","","","","","","","",""
"","","","","","audio-button-response","210","665305","0.0-10.0-2.89","https://mcdermottlab.mit.edu/mturk_stimuli/bjmedina/mem_exp_atexts_2025/sequences/isi_16/len120/seq020_len120_s15_isi-1p0_0p0_16p0.json","11.28","true","nbgjl1qv11s","","2400","https://mcdermottlab.mit.edu/mturk_stimuli/bjmedina/mem_exp_atexts_2025/mem_stim_11.wav","0","main","","","false","mem_stim_11.wav","false","-1","","1","correct_rejection"
"","","","","","html-keyboard-response","211","665376","0.0-10.0-1.90","https://mcdermottlab.mit.edu/mturk_stimuli/bjmedina/mem_exp_atexts_2025/sequences/isi_16/len120/seq020_len120_s15_isi-1p0_0p0_16p0.json","11.28","true","nbgjl1qv11s","","null","<span style=""font-size: 40px"">+</span>","null","","","","","","","","","",""
"","","","","","audio-button-response","212","668414","0.0-10.0-2.90","https://mcdermottlab.mit.edu/mturk_stimuli/bjmedina/mem_exp_atexts_2025/sequences/isi_16/len120/seq020_len120_s15_isi-1p0_0p0_16p0.json","11.28","true","nbgjl1qv11s","","2520","https://mcdermottlab.mit.edu/mturk_stimuli/bjmedina/mem_exp_atexts_2025/mem_stim_43.wav","3","main","","","false","mem_stim_43.wav","false","-1","","1","correct_rejection"
"","","","","","html-keyboard-response","213","668489","0.0-10.0-1.91","https://mcdermottlab.mit.edu/mturk_stimuli/bjmedina/mem_exp_atexts_2025/sequences/isi_16/len120/seq020_len120_s15_isi-1p0_0p0_16p0.json","11.28","true","nbgjl1qv11s","","null","<span style=""font-size: 40px"">+</span>","null","","","","","","","","","",""
"","","","","","audio-button-response","214","672008","0.0-10.0-2.91","https://mcdermottlab.mit.edu/mturk_stimuli/bjmedina/mem_exp_atexts_2025/sequences/isi_16/len120/seq020_len120_s15_isi-1p0_0p0_16p0.json","11.28","true","nbgjl1qv11s","","2491","https://mcdermottlab.mit.edu/mturk_stimuli/bjmedina/mem_exp_atexts_2025/mem_stim_9.wav","3","main","","","false","mem_stim_9.wav","false","-1","","1","correct_rejection"
"","","","","","html-keyboard-response","215","672074","0.0-10.0-1.92","https://mcdermottlab.mit.edu/mturk_stimuli/bjmedina/mem_exp_atexts_2025/sequences/isi_16/len120/seq020_len120_s15_isi-1p0_0p0_16p0.json","11.28","true","nbgjl1qv11s","","null","<span style=""font-size: 40px"">+</span>","null","","","","","","","","","",""
"","","","","","audio-button-response","216","675607","0.0-10.0-2.92","https://mcdermottlab.mit.edu/mturk_stimuli/bjmedina/mem_exp_atexts_2025/sequences/isi_16/len120/seq020_len120_s15_isi-1p0_0p0_16p0.json","11.28","true","nbgjl1qv11s","","2371","https://mcdermottlab.mit.edu/mturk_stimuli/bjmedina/mem_exp_atexts_2025/mem_stim_8.wav","3","main","","","false","mem_stim_8.wav","false","-1","","1","correct_rejection"
"","","","","","html-keyboard-response","217","675673","0.0-10.0-1.93","https://mcdermottlab.mit.edu/mturk_stimuli/bjmedina/mem_exp_atexts_2025/sequences/isi_16/len120/seq020_len120_s15_isi-1p0_0p0_16p0.json","11.28","true","nbgjl1qv11s","","null","<span style=""font-size: 40px"">+</span>","null","","","","","","","","","",""
"","","","","","audio-button-response","218","679187","0.0-10.0-2.93","https://mcdermottlab.mit.edu/mturk_stimuli/bjmedina/mem_exp_atexts_2025/sequences/isi_16/len120/seq020_len120_s15_isi-1p0_0p0_16p0.json","11.28","true","nbgjl1qv11s","","2400","https://mcdermottlab.mit.edu/mturk_stimuli/bjmedina/mem_exp_atexts_2025/mem_stim_19.wav","3","main","","","false","mem_stim_19.wav","false","-1","","1","correct_rejection"
"","","","","","html-keyboard-response","219","679255","0.0-10.0-1.94","https://mcdermottlab.mit.edu/mturk_stimuli/bjmedina/mem_exp_atexts_2025/sequences/isi_16/len120/seq020_len120_s15_isi-1p0_0p0_16p0.json","11.28","true","nbgjl1qv11s","","null","<span style=""font-size: 40px"">+</span>","null","","","","","","","","","",""
"","","","","","audio-button-response","220","682866","0.0-10.0-2.94","https://mcdermottlab.mit.edu/mturk_stimuli/bjmedina/mem_exp_atexts_2025/sequences/isi_16/len120/seq020_len120_s15_isi-1p0_0p0_16p0.json","11.28","true","nbgjl1qv11s","","3051","https://mcdermottlab.mit.edu/mturk_stimuli/bjmedina/mem_exp_atexts_2025/mem_stim_61.wav","1","main","","","false","mem_stim_61.wav","false","-1","","0","false_alarm"
"","","","","","html-keyboard-response","221","682939","0.0-10.0-1.95","https://mcdermottlab.mit.edu/mturk_stimuli/bjmedina/mem_exp_atexts_2025/sequences/isi_16/len120/seq020_len120_s15_isi-1p0_0p0_16p0.json","11.28","true","nbgjl1qv11s","","null","<span style=""font-size: 40px"">+</span>","null","","","","","","","","","",""
"","","","","","audio-button-response","222","685847","0.0-10.0-2.95","https://mcdermottlab.mit.edu/mturk_stimuli/bjmedina/mem_exp_atexts_2025/sequences/isi_16/len120/seq020_len120_s15_isi-1p0_0p0_16p0.json","11.28","true","nbgjl1qv11s","","2411","https://mcdermottlab.mit.edu/mturk_stimuli/bjmedina/mem_exp_atexts_2025/mem_stim_13.wav","3","main","","","false","mem_stim_13.wav","false","-1","","1","correct_rejection"
"","","","","","html-keyboard-response","223","685921","0.0-10.0-1.96","https://mcdermottlab.mit.edu/mturk_stimuli/bjmedina/mem_exp_atexts_2025/sequences/isi_16/len120/seq020_len120_s15_isi-1p0_0p0_16p0.json","11.28","true","nbgjl1qv11s","","null","<span style=""font-size: 40px"">+</span>","null","","","","","","","","","",""
"","","","","","audio-button-response","224","690592","0.0-10.0-2.96","https://mcdermottlab.mit.edu/mturk_stimuli/bjmedina/mem_exp_atexts_2025/sequences/isi_16/len120/seq020_len120_s15_isi-1p0_0p0_16p0.json","11.28","true","nbgjl1qv11s","","4101","https://mcdermottlab.mit.edu/mturk_stimuli/bjmedina/mem_exp_atexts_2025/mem_stim_31.wav","3","main","","","false","mem_stim_31.wav","false","-1","","1","correct_rejection"
"","","","","","html-keyboard-response","225","690669","0.0-10.0-1.97","https://mcdermottlab.mit.edu/mturk_stimuli/bjmedina/mem_exp_atexts_2025/sequences/isi_16/len120/seq020_len120_s15_isi-1p0_0p0_16p0.json","11.28","true","nbgjl1qv11s","","null","<span style=""font-size: 40px"">+</span>","null","","","","","","","","","",""
"","","","","","audio-button-response","226","693231","0.0-10.0-2.97","https://mcdermottlab.mit.edu/mturk_stimuli/bjmedina/mem_exp_atexts_2025/sequences/isi_16/len120/seq020_len120_s15_isi-1p0_0p0_16p0.json","11.28","true","nbgjl1qv11s","","2560","https://mcdermottlab.mit.edu/mturk_stimuli/bjmedina/mem_exp_atexts_2025/mem_stim_23.wav","3","main","","","true","mem_stim_23.wav","false","16","","0","miss"
"","","","","","html-keyboard-response","227","693303","0.0-10.0-1.98","https://mcdermottlab.mit.edu/mturk_stimuli/bjmedina/mem_exp_atexts_2025/sequences/isi_16/len120/seq020_len120_s15_isi-1p0_0p0_16p0.json","11.28","true","nbgjl1qv11s","","null","<span style=""font-size: 40px"">+</span>","null","","","","","","","","","",""
"","","","","","audio-button-response","228","697954","0.0-10.0-2.98","https://mcdermottlab.mit.edu/mturk_stimuli/bjmedina/mem_exp_atexts_2025/sequences/isi_16/len120/seq020_len120_s15_isi-1p0_0p0_16p0.json","11.28","true","nbgjl1qv11s","","2629","https://mcdermottlab.mit.edu/mturk_stimuli/bjmedina/mem_exp_atexts_2025/mem_stim_30.wav","0","main","","","false","mem_stim_30.wav","false","-1","","1","correct_rejection"
"","","","","","html-keyboard-response","229","698019","0.0-10.0-1.99","https://mcdermottlab.mit.edu/mturk_stimuli/bjmedina/mem_exp_atexts_2025/sequences/isi_16/len120/seq020_len120_s15_isi-1p0_0p0_16p0.json","11.28","true","nbgjl1qv11s","","null","<span style=""font-size: 40px"">+</span>","null","","","","","","","","","",""
"","","","","","audio-button-response","230","701563","0.0-10.0-2.99","https://mcdermottlab.mit.edu/mturk_stimuli/bjmedina/mem_exp_atexts_2025/sequences/isi_16/len120/seq020_len120_s15_isi-1p0_0p0_16p0.json","11.28","true","nbgjl1qv11s","","3541","https://mcdermottlab.mit.edu/mturk_stimuli/bjmedina/mem_exp_atexts_2025/mem_stim_25.wav","2","main","","","true","mem_stim_25.wav","false","16","","0","miss"
"","","","","","html-keyboard-response","231","701633","0.0-10.0-1.100","https://mcdermottlab.mit.edu/mturk_stimuli/bjmedina/mem_exp_atexts_2025/sequences/isi_16/len120/seq020_len120_s15_isi-1p0_0p0_16p0.json","11.28","true","nbgjl1qv11s","","null","<span style=""font-size: 40px"">+</span>","null","","","","","","","","","",""
"","","","","","audio-button-response","232","707839","0.0-10.0-2.100","https://mcdermottlab.mit.edu/mturk_stimuli/bjmedina/mem_exp_atexts_2025/sequences/isi_16/len120/seq020_len120_s15_isi-1p0_0p0_16p0.json","11.28","true","nbgjl1qv11s","","5251","https://mcdermottlab.mit.edu/mturk_stimuli/bjmedina/mem_exp_atexts_2025/mem_stim_14.wav","0","main","","","false","mem_stim_14.wav","false","-1","","1","correct_rejection"
"","","","","","html-keyboard-response","233","707916","0.0-10.0-1.101","https://mcdermottlab.mit.edu/mturk_stimuli/bjmedina/mem_exp_atexts_2025/sequences/isi_16/len120/seq020_len120_s15_isi-1p0_0p0_16p0.json","11.28","true","nbgjl1qv11s","","null","<span style=""font-size: 40px"">+</span>","null","","","","","","","","","",""
"","","","","","audio-button-response","234","713389","0.0-10.0-2.101","https://mcdermottlab.mit.edu/mturk_stimuli/bjmedina/mem_exp_atexts_2025/sequences/isi_16/len120/seq020_len120_s15_isi-1p0_0p0_16p0.json","11.28","true","nbgjl1qv11s","","2440","https://mcdermottlab.mit.edu/mturk_stimuli/bjmedina/mem_exp_atexts_2025/mem_stim_6.wav","3","main","","","false","mem_stim_6.wav","false","-1","","1","correct_rejection"
"","","","","","html-keyboard-response","235","713463","0.0-10.0-1.102","https://mcdermottlab.mit.edu/mturk_stimuli/bjmedina/mem_exp_atexts_2025/sequences/isi_16/len120/seq020_len120_s15_isi-1p0_0p0_16p0.json","11.28","true","nbgjl1qv11s","","null","<span style=""font-size: 40px"">+</span>","null","","","","","","","","","",""
"","","","","","audio-button-response","236","715852","0.0-10.0-2.102","https://mcdermottlab.mit.edu/mturk_stimuli/bjmedina/mem_exp_atexts_2025/sequences/isi_16/len120/seq020_len120_s15_isi-1p0_0p0_16p0.json","11.28","true","nbgjl1qv11s","","2389","https://mcdermottlab.mit.edu/mturk_stimuli/bjmedina/mem_exp_atexts_2025/mem_stim_15.wav","3","main","","","true","mem_stim_15.wav","false","16","","0","miss"
"","","","","","html-keyboard-response","237","715929","0.0-10.0-1.103","https://mcdermottlab.mit.edu/mturk_stimuli/bjmedina/mem_exp_atexts_2025/sequences/isi_16/len120/seq020_len120_s15_isi-1p0_0p0_16p0.json","11.28","true","nbgjl1qv11s","","null","<span style=""font-size: 40px"">+</span>","null","","","","","","","","","",""
"","","","","","audio-button-response","238","718647","0.0-10.0-2.103","https://mcdermottlab.mit.edu/mturk_stimuli/bjmedina/mem_exp_atexts_2025/sequences/isi_16/len120/seq020_len120_s15_isi-1p0_0p0_16p0.json","11.28","true","nbgjl1qv11s","","2712","https://mcdermottlab.mit.edu/mturk_stimuli/bjmedina/mem_exp_atexts_2025/mem_stim_0.wav","3","main","","","true","mem_stim_0.wav","false","16","","0","miss"
"","","","","","html-keyboard-response","239","718712","0.0-10.0-1.104","https://mcdermottlab.mit.edu/mturk_stimuli/bjmedina/mem_exp_atexts_2025/sequences/isi_16/len120/seq020_len120_s15_isi-1p0_0p0_16p0.json","11.28","true","nbgjl1qv11s","","null","<span style=""font-size: 40px"">+</span>","null","","","","","","","","","",""
"","","","","","audio-button-response","240","721239","0.0-10.0-2.104","https://mcdermottlab.mit.edu/mturk_stimuli/bjmedina/mem_exp_atexts_2025/sequences/isi_16/len120/seq020_len120_s15_isi-1p0_0p0_16p0.json","11.28","true","nbgjl1qv11s","","2531","https://mcdermottlab.mit.edu/mturk_stimuli/bjmedina/mem_exp_atexts_2025/mem_stim_10.wav","3","main","","","true","mem_stim_10.wav","false","16","","0","miss"
"","","","","","html-keyboard-response","241","721313","0.0-10.0-1.105","https://mcdermottlab.mit.edu/mturk_stimuli/bjmedina/mem_exp_atexts_2025/sequences/isi_16/len120/seq020_len120_s15_isi-1p0_0p0_16p0.json","11.28","true","nbgjl1qv11s","","null","<span style=""font-size: 40px"">+</span>","null","","","","","","","","","",""
"","","","","","audio-button-response","242","725761","0.0-10.0-2.105","https://mcdermottlab.mit.edu/mturk_stimuli/bjmedina/mem_exp_atexts_2025/sequences/isi_16/len120/seq020_len120_s15_isi-1p0_0p0_16p0.json","11.28","true","nbgjl1qv11s","","2440","https://mcdermottlab.mit.edu/mturk_stimuli/bjmedina/mem_exp_atexts_2025/mem_stim_41.wav","3","main","","","false","mem_stim_41.wav","false","-1","","1","correct_rejection"
"","","","","","html-keyboard-response","243","725830","0.0-10.0-1.106","https://mcdermottlab.mit.edu/mturk_stimuli/bjmedina/mem_exp_atexts_2025/sequences/isi_16/len120/seq020_len120_s15_isi-1p0_0p0_16p0.json","11.28","true","nbgjl1qv11s","","null","<span style=""font-size: 40px"">+</span>","null","","","","","","","","","",""
"","","","","","audio-button-response","244","728453","0.0-10.0-2.106","https://mcdermottlab.mit.edu/mturk_stimuli/bjmedina/mem_exp_atexts_2025/sequences/isi_16/len120/seq020_len120_s15_isi-1p0_0p0_16p0.json","11.28","true","nbgjl1qv11s","","2619","https://mcdermottlab.mit.edu/mturk_stimuli/bjmedina/mem_exp_atexts_2025/mem_stim_11.wav","0","main","","","true","mem_stim_11.wav","false","16","","0","miss"
"","","","","","html-keyboard-response","245","728528","0.0-10.0-1.107","https://mcdermottlab.mit.edu/mturk_stimuli/bjmedina/mem_exp_atexts_2025/sequences/isi_16/len120/seq020_len120_s15_isi-1p0_0p0_16p0.json","11.28","true","nbgjl1qv11s","","null","<span style=""font-size: 40px"">+</span>","null","","","","","","","","","",""
"","","","","","audio-button-response","246","732121","0.0-10.0-2.107","https://mcdermottlab.mit.edu/mturk_stimuli/bjmedina/mem_exp_atexts_2025/sequences/isi_16/len120/seq020_len120_s15_isi-1p0_0p0_16p0.json","11.28","true","nbgjl1qv11s","","2371","https://mcdermottlab.mit.edu/mturk_stimuli/bjmedina/mem_exp_atexts_2025/mem_stim_64.wav","0","main","","","false","mem_stim_64.wav","false","-1","","1","correct_rejection"
"","","","","","html-keyboard-response","247","732195","0.0-10.0-1.108","https://mcdermottlab.mit.edu/mturk_stimuli/bjmedina/mem_exp_atexts_2025/sequences/isi_16/len120/seq020_len120_s15_isi-1p0_0p0_16p0.json","11.28","true","nbgjl1qv11s","","null","<span style=""font-size: 40px"">+</span>","null","","","","","","","","","",""
"","","","","","audio-button-response","248","735463","0.0-10.0-2.108","https://mcdermottlab.mit.edu/mturk_stimuli/bjmedina/mem_exp_atexts_2025/sequences/isi_16/len120/seq020_len120_s15_isi-1p0_0p0_16p0.json","11.28","true","nbgjl1qv11s","","3269","https://mcdermottlab.mit.edu/mturk_stimuli/bjmedina/mem_exp_atexts_2025/mem_stim_9.wav","3","main","","","true","mem_stim_9.wav","false","16","","0","miss"
"","","","","","html-keyboard-response","249","735543","0.0-10.0-1.109","https://mcdermottlab.mit.edu/mturk_stimuli/bjmedina/mem_exp_atexts_2025/sequences/isi_16/len120/seq020_len120_s15_isi-1p0_0p0_16p0.json","11.28","true","nbgjl1qv11s","","null","<span style=""font-size: 40px"">+</span>","null","","","","","","","","","",""
"","","","","","audio-button-response","250","737937","0.0-10.0-2.109","https://mcdermottlab.mit.edu/mturk_stimuli/bjmedina/mem_exp_atexts_2025/sequences/isi_16/len120/seq020_len120_s15_isi-1p0_0p0_16p0.json","11.28","true","nbgjl1qv11s","","2389","https://mcdermottlab.mit.edu/mturk_stimuli/bjmedina/mem_exp_atexts_2025/mem_stim_8.wav","3","main","","","true","mem_stim_8.wav","false","16","","0","miss"
"","","","","","html-keyboard-response","251","738008","0.0-10.0-1.110","https://mcdermottlab.mit.edu/mturk_stimuli/bjmedina/mem_exp_atexts_2025/sequences/isi_16/len120/seq020_len120_s15_isi-1p0_0p0_16p0.json","11.28","true","nbgjl1qv11s","","null","<span style=""font-size: 40px"">+</span>","null","","","","","","","","","",""
"","","","","","audio-button-response","252","740373","0.0-10.0-2.110","https://mcdermottlab.mit.edu/mturk_stimuli/bjmedina/mem_exp_atexts_2025/sequences/isi_16/len120/seq020_len120_s15_isi-1p0_0p0_16p0.json","11.28","true","nbgjl1qv11s","","2360","https://mcdermottlab.mit.edu/mturk_stimuli/bjmedina/mem_exp_atexts_2025/mem_stim_19.wav","3","main","","","true","mem_stim_19.wav","false","16","","0","miss"
"","","","","","html-keyboard-response","253","740441","0.0-10.0-1.111","https://mcdermottlab.mit.edu/mturk_stimuli/bjmedina/mem_exp_atexts_2025/sequences/isi_16/len120/seq020_len120_s15_isi-1p0_0p0_16p0.json","11.28","true","nbgjl1qv11s","","null","<span style=""font-size: 40px"">+</span>","null","","","","","","","","","",""
"","","","","","audio-button-response","254","746419","0.0-10.0-2.111","https://mcdermottlab.mit.edu/mturk_stimuli/bjmedina/mem_exp_atexts_2025/sequences/isi_16/len120/seq020_len120_s15_isi-1p0_0p0_16p0.json","11.28","true","nbgjl1qv11s","","3520","https://mcdermottlab.mit.edu/mturk_stimuli/bjmedina/mem_exp_atexts_2025/mem_stim_35.wav","1","main","","","false","mem_stim_35.wav","false","-1","","0","false_alarm"
"","","","","","html-keyboard-response","255","746488","0.0-10.0-1.112","https://mcdermottlab.mit.edu/mturk_stimuli/bjmedina/mem_exp_atexts_2025/sequences/isi_16/len120/seq020_len120_s15_isi-1p0_0p0_16p0.json","11.28","true","nbgjl1qv11s","","null","<span style=""font-size: 40px"">+</span>","null","","","","","","","","","",""
"","","","","","audio-button-response","256","749107","0.0-10.0-2.112","https://mcdermottlab.mit.edu/mturk_stimuli/bjmedina/mem_exp_atexts_2025/sequences/isi_16/len120/seq020_len120_s15_isi-1p0_0p0_16p0.json","11.28","true","nbgjl1qv11s","","2611","https://mcdermottlab.mit.edu/mturk_stimuli/bjmedina/mem_exp_atexts_2025/mem_stim_13.wav","3","main","","","true","mem_stim_13.wav","false","16","","0","miss"
"","","","","","html-keyboard-response","257","749173","0.0-10.0-1.113","https://mcdermottlab.mit.edu/mturk_stimuli/bjmedina/mem_exp_atexts_2025/sequences/isi_16/len120/seq020_len120_s15_isi-1p0_0p0_16p0.json","11.28","true","nbgjl1qv11s","","null","<span style=""font-size: 40px"">+</span>","null","","","","","","","","","",""
"","","","","","audio-button-response","258","754642","0.0-10.0-2.113","https://mcdermottlab.mit.edu/mturk_stimuli/bjmedina/mem_exp_atexts_2025/sequences/isi_16/len120/seq020_len120_s15_isi-1p0_0p0_16p0.json","11.28","true","nbgjl1qv11s","","2760","https://mcdermottlab.mit.edu/mturk_stimuli/bjmedina/mem_exp_atexts_2025/mem_stim_34.wav","0","main","","","false","mem_stim_34.wav","false","-1","","1","correct_rejection"
"","","","","","html-keyboard-response","259","754721","0.0-10.0-1.114","https://mcdermottlab.mit.edu/mturk_stimuli/bjmedina/mem_exp_atexts_2025/sequences/isi_16/len120/seq020_len120_s15_isi-1p0_0p0_16p0.json","11.28","true","nbgjl1qv11s","","null","<span style=""font-size: 40px"">+</span>","null","","","","","","","","","",""
"","","","","","audio-button-response","260","759138","0.0-10.0-2.114","https://mcdermottlab.mit.edu/mturk_stimuli/bjmedina/mem_exp_atexts_2025/sequences/isi_16/len120/seq020_len120_s15_isi-1p0_0p0_16p0.json","11.28","true","nbgjl1qv11s","","2429","https://mcdermottlab.mit.edu/mturk_stimuli/bjmedina/mem_exp_atexts_2025/mem_stim_39.wav","3","main","","","false","mem_stim_39.wav","false","-1","","1","correct_rejection"
"","","","","","html-keyboard-response","261","759203","0.0-10.0-1.115","https://mcdermottlab.mit.edu/mturk_stimuli/bjmedina/mem_exp_atexts_2025/sequences/isi_16/len120/seq020_len120_s15_isi-1p0_0p0_16p0.json","11.28","true","nbgjl1qv11s","","null","<span style=""font-size: 40px"">+</span>","null","","","","","","","","","",""
"","","","","","audio-button-response","262","762335","0.0-10.0-2.115","https://mcdermottlab.mit.edu/mturk_stimuli/bjmedina/mem_exp_atexts_2025/sequences/isi_16/len120/seq020_len120_s15_isi-1p0_0p0_16p0.json","11.28","true","nbgjl1qv11s","","2469","https://mcdermottlab.mit.edu/mturk_stimuli/bjmedina/mem_exp_atexts_2025/mem_stim_56.wav","3","main","","","false","mem_stim_56.wav","false","-1","","1","correct_rejection"
"","","","","","html-keyboard-response","263","762402","0.0-10.0-1.116","https://mcdermottlab.mit.edu/mturk_stimuli/bjmedina/mem_exp_atexts_2025/sequences/isi_16/len120/seq020_len120_s15_isi-1p0_0p0_16p0.json","11.28","true","nbgjl1qv11s","","null","<span style=""font-size: 40px"">+</span>","null","","","","","","","","","",""
"","","","","","audio-button-response","264","766363","0.0-10.0-2.116","https://mcdermottlab.mit.edu/mturk_stimuli/bjmedina/mem_exp_atexts_2025/sequences/isi_16/len120/seq020_len120_s15_isi-1p0_0p0_16p0.json","11.28","true","nbgjl1qv11s","","3360","https://mcdermottlab.mit.edu/mturk_stimuli/bjmedina/mem_exp_atexts_2025/mem_stim_66.wav","0","main","","","false","mem_stim_66.wav","false","-1","","1","correct_rejection"
"","","","","","html-keyboard-response","265","766435","0.0-10.0-1.117","https://mcdermottlab.mit.edu/mturk_stimuli/bjmedina/mem_exp_atexts_2025/sequences/isi_16/len120/seq020_len120_s15_isi-1p0_0p0_16p0.json","11.28","true","nbgjl1qv11s","","null","<span style=""font-size: 40px"">+</span>","null","","","","","","","","","",""
"","","","","","audio-button-response","266","768851","0.0-10.0-2.117","https://mcdermottlab.mit.edu/mturk_stimuli/bjmedina/mem_exp_atexts_2025/sequences/isi_16/len120/seq020_len120_s15_isi-1p0_0p0_16p0.json","11.28","true","nbgjl1qv11s","","2419","https://mcdermottlab.mit.edu/mturk_stimuli/bjmedina/mem_exp_atexts_2025/mem_stim_14.wav","0","main","","","true","mem_stim_14.wav","false","16","","0","miss"
"","","","","","html-keyboard-response","267","768916","0.0-10.0-1.118","https://mcdermottlab.mit.edu/mturk_stimuli/bjmedina/mem_exp_atexts_2025/sequences/isi_16/len120/seq020_len120_s15_isi-1p0_0p0_16p0.json","11.28","true","nbgjl1qv11s","","null","<span style=""font-size: 40px"">+</span>","null","","","","","","","","","",""
"","","","","","audio-button-response","268","771311","0.0-10.0-2.118","https://mcdermottlab.mit.edu/mturk_stimuli/bjmedina/mem_exp_atexts_2025/sequences/isi_16/len120/seq020_len120_s15_isi-1p0_0p0_16p0.json","11.28","true","nbgjl1qv11s","","2389","https://mcdermottlab.mit.edu/mturk_stimuli/bjmedina/mem_exp_atexts_2025/mem_stim_6.wav","3","main","","","true","mem_stim_6.wav","false","16","","0","miss"
