"success","timeout","failed_images","failed_audio","failed_video","trial_type","trial_index","time_elapsed","internal_node_id","sequence_file","pay","passed_hc","completion_code","view_history","rt","stimulus","response","stim_type","hc_answer","correct_hc","repeat","yt_id","catch","isi","type","is_correct","response_type"
"true","false","[]","[]","[]","preload","0","116","0.0-0.0","https://mcdermottlab.mit.edu/mturk_stimuli/bjmedina/mem_exp_atexts_2025/sequences/isi_16/len120/seq064_len120_s15_isi-1p0_0p0_16p0.json","10.780000000000001","true","ospmoysz4bs","","","","","","","","","","","","","",""
"","","","","","instructions","1","350213","0.0-1.0","https://mcdermottlab.mit.edu/mturk_stimuli/bjmedina/mem_exp_atexts_2025/sequences/isi_16/len120/seq064_len120_s15_isi-1p0_0p0_16p0.json","10.780000000000001","true","ospmoysz4bs","[{""page_index"":0,""viewing_time"":350096}]","350096","","","","","","","","","","","",""
"","","","","","instructions","2","353598","0.0-2.0","https://mcdermottlab.mit.edu/mturk_stimuli/bjmedina/mem_exp_atexts_2025/sequences/isi_16/len120/seq064_len120_s15_isi-1p0_0p0_16p0.json","10.780000000000001","true","ospmoysz4bs","[{""page_index"":0,""viewing_time"":3385}]","3385","","","","","","","","","","","",""
"","","","","","audio-button-response","3","359476","0.0-3.0-0.0","https://mcdermottlab.mit.edu/mturk_stimuli/bjmedina/mem_exp_atexts_2025/sequences/isi_16/len120/seq064_len120_s15_isi-1p0_0p0_16p0.json","10.780000000000001","true","ospmoysz4bs","","5861","https://mcdermottlab.mit.edu/bjmedina/experiments/mem_exp_v01/assets/noise_calib_stim.wav","1","","","","","","","","","",""
"","","","","","instructions","4","528761","0.0-4.0","https://mcdermottlab.mit.edu/mturk_stimuli/bjmedina/mem_exp_atexts_2025/sequences/isi_16/len120/seq064_len120_s15_isi-1p0_0p0_16p0.json","10.780000000000001","true","ospmoysz4bs","[{""page_index"":0,""viewing_time"":169284}]","169284","","","","","","","","","","","",""
"","","","","","audio-button-response","5","534351","0.0-5.0-0.0","https://mcdermottlab.mit.edu/mturk_stimuli/bjmedina/mem_exp_atexts_2025/sequences/isi_16/len120/seq064_len120_s15_isi-1p0_0p0_16p0.json","10.780000000000001","true","ospmoysz4bs","","4899","https://mcdermottlab.mit.edu/bjmedina/experiments/mem_exp_v01/assets/antiphase_HC_SOI.wav","0","hc","1","1","","","","","","",""
"","","","","","audio-button-response","6","539497","0.0-5.0-0.1","https://mcdermottlab.mit.edu/mturk_stimuli/bjmedina/mem_exp_atexts_2025/sequences/isi_16/len120/seq064_len120_s15_isi-1p0_0p0_16p0.json","10.780000000000001","true","ospmoysz4bs","","4520","https://mcdermottlab.mit.edu/bjmedina/experiments/mem_exp_v01/assets/antiphase_HC_SIO.wav","0","hc","1","1","","","","","","",""
"","","","","","audio-button-response","7","544722","0.0-5.0-0.2","https://mcdermottlab.mit.edu/mturk_stimuli/bjmedina/mem_exp_atexts_2025/sequences/isi_16/len120/seq064_len120_s15_isi-1p0_0p0_16p0.json","10.780000000000001","true","ospmoysz4bs","","4779","https://mcdermottlab.mit.edu/bjmedina/experiments/mem_exp_v01/assets/antiphase_HC_OIS.wav","2","hc","3","1","","","","","","",""
"","","","","","audio-button-response","8","549715","0.0-5.0-0.3","https://mcdermottlab.mit.edu/mturk_stimuli/bjmedina/mem_exp_atexts_2025/sequences/isi_16/len120/seq064_len120_s15_isi-1p0_0p0_16p0.json","10.780000000000001","true","ospmoysz4bs","","4328","https://mcdermottlab.mit.edu/bjmedina/experiments/mem_exp_v01/assets/antiphase_HC_OSI.wav","1","hc","2","1","","","","","","",""
"","","","","","audio-button-response","9","555360","0.0-5.0-0.4","https://mcdermottlab.mit.edu/mturk_stimuli/bjmedina/mem_exp_atexts_2025/sequences/isi_16/len120/seq064_len120_s15_isi-1p0_0p0_16p0.json","10.780000000000001","true","ospmoysz4bs","","5171","https://mcdermottlab.mit.edu/bjmedina/experiments/mem_exp_v01/assets/antiphase_HC_ISO.wav","1","hc","2","1","","","","","","",""
"","","","","","audio-button-response","10","560136","0.0-5.0-0.5","https://mcdermottlab.mit.edu/mturk_stimuli/bjmedina/mem_exp_atexts_2025/sequences/isi_16/len120/seq064_len120_s15_isi-1p0_0p0_16p0.json","10.780000000000001","true","ospmoysz4bs","","4141","https://mcdermottlab.mit.edu/bjmedina/experiments/mem_exp_v01/assets/antiphase_HC_IOS.wav","2","hc","3","1","","","","","","",""
"","","","","","html-keyboard-response","11","561316","0.0-6.0","https://mcdermottlab.mit.edu/mturk_stimuli/bjmedina/mem_exp_atexts_2025/sequences/isi_16/len120/seq064_len120_s15_isi-1p0_0p0_16p0.json","10.780000000000001","true","ospmoysz4bs","","1179","<h1>You have finished the LOUDNESS task!</h1> <p>Press space to continue</p>"," ","","","","","","","","","",""
"","","","","","instructions","12","582111","0.0-7.0","https://mcdermottlab.mit.edu/mturk_stimuli/bjmedina/mem_exp_atexts_2025/sequences/isi_16/len120/seq064_len120_s15_isi-1p0_0p0_16p0.json","10.780000000000001","true","ospmoysz4bs","[{""page_index"":0,""viewing_time"":2435},{""page_index"":1,""viewing_time"":1301},{""page_index"":2,""viewing_time"":13456},{""page_index"":3,""viewing_time"":3603}]","20795","","","","","","","","","","","",""
"","","","","","html-keyboard-response","13","582174","0.0-8.0-0.0","https://mcdermottlab.mit.edu/mturk_stimuli/bjmedina/mem_exp_atexts_2025/sequences/isi_16/len120/seq064_len120_s15_isi-1p0_0p0_16p0.json","10.780000000000001","true","ospmoysz4bs","","null","<span style=""font-size: 40px"">+</span>","null","fixation","","","","","","","","",""
"","","","","","audio-button-response","14","585969","0.0-8.0-1.0","https://mcdermottlab.mit.edu/mturk_stimuli/bjmedina/mem_exp_atexts_2025/sequences/isi_16/len120/seq064_len120_s15_isi-1p0_0p0_16p0.json","10.780000000000001","true","ospmoysz4bs","","3051","https://mcdermottlab.mit.edu/mturk_stimuli/bjmedina/mem_exp_v05/mem_stim_1023_f32.wav","0","demo","","","0","","","","","",""
"","","","","","html-keyboard-response","15","586026","0.0-8.0-0.1","https://mcdermottlab.mit.edu/mturk_stimuli/bjmedina/mem_exp_atexts_2025/sequences/isi_16/len120/seq064_len120_s15_isi-1p0_0p0_16p0.json","10.780000000000001","true","ospmoysz4bs","","null","<span style=""font-size: 40px"">+</span>","null","fixation","","","","","","","","",""
"","","","","","audio-button-response","16","589488","0.0-8.0-1.1","https://mcdermottlab.mit.edu/mturk_stimuli/bjmedina/mem_exp_atexts_2025/sequences/isi_16/len120/seq064_len120_s15_isi-1p0_0p0_16p0.json","10.780000000000001","true","ospmoysz4bs","","2901","https://mcdermottlab.mit.edu/mturk_stimuli/bjmedina/mem_exp_v05/mem_stim_1022_f32.wav","0","demo","","","0","","","","","",""
"","","","","","html-keyboard-response","17","589552","0.0-8.0-0.2","https://mcdermottlab.mit.edu/mturk_stimuli/bjmedina/mem_exp_atexts_2025/sequences/isi_16/len120/seq064_len120_s15_isi-1p0_0p0_16p0.json","10.780000000000001","true","ospmoysz4bs","","null","<span style=""font-size: 40px"">+</span>","null","fixation","","","","","","","","",""
"","","","","","audio-button-response","18","592090","0.0-8.0-1.2","https://mcdermottlab.mit.edu/mturk_stimuli/bjmedina/mem_exp_atexts_2025/sequences/isi_16/len120/seq064_len120_s15_isi-1p0_0p0_16p0.json","10.780000000000001","true","ospmoysz4bs","","2541","https://mcdermottlab.mit.edu/mturk_stimuli/bjmedina/mem_exp_v05/mem_stim_1022_f32.wav","3","demo","","","1","","","","","",""
"","","","","","html-keyboard-response","19","592154","0.0-8.0-0.3","https://mcdermottlab.mit.edu/mturk_stimuli/bjmedina/mem_exp_atexts_2025/sequences/isi_16/len120/seq064_len120_s15_isi-1p0_0p0_16p0.json","10.780000000000001","true","ospmoysz4bs","","null","<span style=""font-size: 40px"">+</span>","null","fixation","","","","","","","","",""
"","","","","","audio-button-response","20","595651","0.0-8.0-1.3","https://mcdermottlab.mit.edu/mturk_stimuli/bjmedina/mem_exp_atexts_2025/sequences/isi_16/len120/seq064_len120_s15_isi-1p0_0p0_16p0.json","10.780000000000001","true","ospmoysz4bs","","2741","https://mcdermottlab.mit.edu/mturk_stimuli/bjmedina/mem_exp_v05/mem_stim_1021_f32.wav","2","demo","","","0","","","","","",""
"","","","","","html-keyboard-response","21","595707","0.0-8.0-0.4","https://mcdermottlab.mit.edu/mturk_stimuli/bjmedina/mem_exp_atexts_2025/sequences/isi_16/len120/seq064_len120_s15_isi-1p0_0p0_16p0.json","10.780000000000001","true","ospmoysz4bs","","null","<span style=""font-size: 40px"">+</span>","null","fixation","","","","","","","","",""
"","","","","","audio-button-response","22","598320","0.0-8.0-1.4","https://mcdermottlab.mit.edu/mturk_stimuli/bjmedina/mem_exp_atexts_2025/sequences/isi_16/len120/seq064_len120_s15_isi-1p0_0p0_16p0.json","10.780000000000001","true","ospmoysz4bs","","2611","https://mcdermottlab.mit.edu/mturk_stimuli/bjmedina/mem_exp_v05/mem_stim_1023_f32.wav","0","demo","","","1","","","","","",""
"","","","","","html-keyboard-response","23","598379","0.0-8.0-0.5","https://mcdermottlab.mit.edu/mturk_stimuli/bjmedina/mem_exp_atexts_2025/sequences/isi_16/len120/seq064_len120_s15_isi-1p0_0p0_16p0.json","10.780000000000001","true","ospmoysz4bs","","null","<span style=""font-size: 40px"">+</span>","null","fixation","","","","","","","","",""
"","","","","","audio-button-response","24","601621","0.0-8.0-1.5","https://mcdermottlab.mit.edu/mturk_stimuli/bjmedina/mem_exp_atexts_2025/sequences/isi_16/len120/seq064_len120_s15_isi-1p0_0p0_16p0.json","10.780000000000001","true","ospmoysz4bs","","2600","https://mcdermottlab.mit.edu/mturk_stimuli/bjmedina/mem_exp_v05/mem_stim_1020_f32.wav","0","demo","","","0","","","","","",""
"","","","","","html-keyboard-response","25","601679","0.0-8.0-0.6","https://mcdermottlab.mit.edu/mturk_stimuli/bjmedina/mem_exp_atexts_2025/sequences/isi_16/len120/seq064_len120_s15_isi-1p0_0p0_16p0.json","10.780000000000001","true","ospmoysz4bs","","null","<span style=""font-size: 40px"">+</span>","null","fixation","","","","","","","","",""
"","","","","","audio-button-response","26","604887","0.0-8.0-1.6","https://mcdermottlab.mit.edu/mturk_stimuli/bjmedina/mem_exp_atexts_2025/sequences/isi_16/len120/seq064_len120_s15_isi-1p0_0p0_16p0.json","10.780000000000001","true","ospmoysz4bs","","2651","https://mcdermottlab.mit.edu/mturk_stimuli/bjmedina/mem_exp_v05/mem_stim_1019_f32.wav","0","demo","","","0","","","","","",""
"","","","","","html-keyboard-response","27","604951","0.0-8.0-0.7","https://mcdermottlab.mit.edu/mturk_stimuli/bjmedina/mem_exp_atexts_2025/sequences/isi_16/len120/seq064_len120_s15_isi-1p0_0p0_16p0.json","10.780000000000001","true","ospmoysz4bs","","null","<span style=""font-size: 40px"">+</span>","null","fixation","","","","","","","","",""
"","","","","","audio-button-response","28","607463","0.0-8.0-1.7","https://mcdermottlab.mit.edu/mturk_stimuli/bjmedina/mem_exp_atexts_2025/sequences/isi_16/len120/seq064_len120_s15_isi-1p0_0p0_16p0.json","10.780000000000001","true","ospmoysz4bs","","2512","https://mcdermottlab.mit.edu/mturk_stimuli/bjmedina/mem_exp_v05/mem_stim_1021_f32.wav","1","demo","","","1","","","","","",""
"","","","","","html-keyboard-response","29","614595","0.0-9.0","https://mcdermottlab.mit.edu/mturk_stimuli/bjmedina/mem_exp_atexts_2025/sequences/isi_16/len120/seq064_len120_s15_isi-1p0_0p0_16p0.json","10.780000000000001","true","ospmoysz4bs","","7131","<p>You are now ready to start the experiment. Press SPACE when you are ready to start.</p>"," ","","","","","","","","","",""
"","","","","","html-keyboard-response","30","614653","0.0-10.0-1.0","https://mcdermottlab.mit.edu/mturk_stimuli/bjmedina/mem_exp_atexts_2025/sequences/isi_16/len120/seq064_len120_s15_isi-1p0_0p0_16p0.json","10.780000000000001","true","ospmoysz4bs","","null","<span style=""font-size: 40px"">+</span>","null","","","","","","","","","",""
"","","","","","audio-button-response","31","619731","0.0-10.0-2.0","https://mcdermottlab.mit.edu/mturk_stimuli/bjmedina/mem_exp_atexts_2025/sequences/isi_16/len120/seq064_len120_s15_isi-1p0_0p0_16p0.json","10.780000000000001","true","ospmoysz4bs","","4331","https://mcdermottlab.mit.edu/mturk_stimuli/bjmedina/mem_exp_atexts_2025/mem_stim_36.wav","0","main","","","false","mem_stim_36.wav","false","-1","","1","correct_rejection"
"","","","","","html-keyboard-response","32","619787","0.0-10.0-1.1","https://mcdermottlab.mit.edu/mturk_stimuli/bjmedina/mem_exp_atexts_2025/sequences/isi_16/len120/seq064_len120_s15_isi-1p0_0p0_16p0.json","10.780000000000001","true","ospmoysz4bs","","null","<span style=""font-size: 40px"">+</span>","null","","","","","","","","","",""
"","","","","","audio-button-response","33","622371","0.0-10.0-2.1","https://mcdermottlab.mit.edu/mturk_stimuli/bjmedina/mem_exp_atexts_2025/sequences/isi_16/len120/seq064_len120_s15_isi-1p0_0p0_16p0.json","10.780000000000001","true","ospmoysz4bs","","2581","https://mcdermottlab.mit.edu/mturk_stimuli/bjmedina/mem_exp_atexts_2025/mem_stim_36.wav","3","main","","","true","mem_stim_36.wav","true","0","","0","miss"
"","","","","","html-keyboard-response","34","622428","0.0-10.0-1.2","https://mcdermottlab.mit.edu/mturk_stimuli/bjmedina/mem_exp_atexts_2025/sequences/isi_16/len120/seq064_len120_s15_isi-1p0_0p0_16p0.json","10.780000000000001","true","ospmoysz4bs","","null","<span style=""font-size: 40px"">+</span>","null","","","","","","","","","",""
"","","","","","audio-button-response","35","626898","0.0-10.0-2.2","https://mcdermottlab.mit.edu/mturk_stimuli/bjmedina/mem_exp_atexts_2025/sequences/isi_16/len120/seq064_len120_s15_isi-1p0_0p0_16p0.json","10.780000000000001","true","ospmoysz4bs","","3872","https://mcdermottlab.mit.edu/mturk_stimuli/bjmedina/mem_exp_atexts_2025/mem_stim_65.wav","0","main","","","false","mem_stim_65.wav","false","-1","","1","correct_rejection"
"","","","","","html-keyboard-response","36","626956","0.0-10.0-1.3","https://mcdermottlab.mit.edu/mturk_stimuli/bjmedina/mem_exp_atexts_2025/sequences/isi_16/len120/seq064_len120_s15_isi-1p0_0p0_16p0.json","10.780000000000001","true","ospmoysz4bs","","null","<span style=""font-size: 40px"">+</span>","null","","","","","","","","","",""
"","","","","","audio-button-response","37","630326","0.0-10.0-2.3","https://mcdermottlab.mit.edu/mturk_stimuli/bjmedina/mem_exp_atexts_2025/sequences/isi_16/len120/seq064_len120_s15_isi-1p0_0p0_16p0.json","10.780000000000001","true","ospmoysz4bs","","2789","https://mcdermottlab.mit.edu/mturk_stimuli/bjmedina/mem_exp_atexts_2025/mem_stim_28.wav","0","main","","","false","mem_stim_28.wav","false","-1","","1","correct_rejection"
"","","","","","html-keyboard-response","38","630386","0.0-10.0-1.4","https://mcdermottlab.mit.edu/mturk_stimuli/bjmedina/mem_exp_atexts_2025/sequences/isi_16/len120/seq064_len120_s15_isi-1p0_0p0_16p0.json","10.780000000000001","true","ospmoysz4bs","","null","<span style=""font-size: 40px"">+</span>","null","","","","","","","","","",""
"","","","","","audio-button-response","39","633711","0.0-10.0-2.4","https://mcdermottlab.mit.edu/mturk_stimuli/bjmedina/mem_exp_atexts_2025/sequences/isi_16/len120/seq064_len120_s15_isi-1p0_0p0_16p0.json","10.780000000000001","true","ospmoysz4bs","","2760","https://mcdermottlab.mit.edu/mturk_stimuli/bjmedina/mem_exp_atexts_2025/mem_stim_8.wav","0","main","","","false","mem_stim_8.wav","false","-1","","1","correct_rejection"
"","","","","","html-keyboard-response","40","633776","0.0-10.0-1.5","https://mcdermottlab.mit.edu/mturk_stimuli/bjmedina/mem_exp_atexts_2025/sequences/isi_16/len120/seq064_len120_s15_isi-1p0_0p0_16p0.json","10.780000000000001","true","ospmoysz4bs","","null","<span style=""font-size: 40px"">+</span>","null","","","","","","","","","",""
"","","","","","audio-button-response","41","639515","0.0-10.0-2.5","https://mcdermottlab.mit.edu/mturk_stimuli/bjmedina/mem_exp_atexts_2025/sequences/isi_16/len120/seq064_len120_s15_isi-1p0_0p0_16p0.json","10.780000000000001","true","ospmoysz4bs","","4739","https://mcdermottlab.mit.edu/mturk_stimuli/bjmedina/mem_exp_atexts_2025/mem_stim_11.wav","0","main","","","false","mem_stim_11.wav","false","-1","","1","correct_rejection"
"","","","","","html-keyboard-response","42","639576","0.0-10.0-1.6","https://mcdermottlab.mit.edu/mturk_stimuli/bjmedina/mem_exp_atexts_2025/sequences/isi_16/len120/seq064_len120_s15_isi-1p0_0p0_16p0.json","10.780000000000001","true","ospmoysz4bs","","null","<span style=""font-size: 40px"">+</span>","null","","","","","","","","","",""
"","","","","","audio-button-response","43","643967","0.0-10.0-2.6","https://mcdermottlab.mit.edu/mturk_stimuli/bjmedina/mem_exp_atexts_2025/sequences/isi_16/len120/seq064_len120_s15_isi-1p0_0p0_16p0.json","10.780000000000001","true","ospmoysz4bs","","3389","https://mcdermottlab.mit.edu/mturk_stimuli/bjmedina/mem_exp_atexts_2025/mem_stim_5.wav","0","main","","","false","mem_stim_5.wav","false","-1","","1","correct_rejection"
"","","","","","html-keyboard-response","44","644032","0.0-10.0-1.7","https://mcdermottlab.mit.edu/mturk_stimuli/bjmedina/mem_exp_atexts_2025/sequences/isi_16/len120/seq064_len120_s15_isi-1p0_0p0_16p0.json","10.780000000000001","true","ospmoysz4bs","","null","<span style=""font-size: 40px"">+</span>","null","","","","","","","","","",""
"","","","","","audio-button-response","45","647251","0.0-10.0-2.7","https://mcdermottlab.mit.edu/mturk_stimuli/bjmedina/mem_exp_atexts_2025/sequences/isi_16/len120/seq064_len120_s15_isi-1p0_0p0_16p0.json","10.780000000000001","true","ospmoysz4bs","","2349","https://mcdermottlab.mit.edu/mturk_stimuli/bjmedina/mem_exp_atexts_2025/mem_stim_64.wav","0","main","","","false","mem_stim_64.wav","false","-1","","1","correct_rejection"
"","","","","","html-keyboard-response","46","647317","0.0-10.0-1.8","https://mcdermottlab.mit.edu/mturk_stimuli/bjmedina/mem_exp_atexts_2025/sequences/isi_16/len120/seq064_len120_s15_isi-1p0_0p0_16p0.json","10.780000000000001","true","ospmoysz4bs","","null","<span style=""font-size: 40px"">+</span>","null","","","","","","","","","",""
"","","","","","audio-button-response","47","652317","0.0-10.0-2.8","https://mcdermottlab.mit.edu/mturk_stimuli/bjmedina/mem_exp_atexts_2025/sequences/isi_16/len120/seq064_len120_s15_isi-1p0_0p0_16p0.json","10.780000000000001","true","ospmoysz4bs","","4349","https://mcdermottlab.mit.edu/mturk_stimuli/bjmedina/mem_exp_atexts_2025/mem_stim_16.wav","1","main","","","false","mem_stim_16.wav","false","-1","","0","false_alarm"
"","","","","","html-keyboard-response","48","652382","0.0-10.0-1.9","https://mcdermottlab.mit.edu/mturk_stimuli/bjmedina/mem_exp_atexts_2025/sequences/isi_16/len120/seq064_len120_s15_isi-1p0_0p0_16p0.json","10.780000000000001","true","ospmoysz4bs","","null","<span style=""font-size: 40px"">+</span>","null","","","","","","","","","",""
"","","","","","audio-button-response","49","655542","0.0-10.0-2.9","https://mcdermottlab.mit.edu/mturk_stimuli/bjmedina/mem_exp_atexts_2025/sequences/isi_16/len120/seq064_len120_s15_isi-1p0_0p0_16p0.json","10.780000000000001","true","ospmoysz4bs","","2640","https://mcdermottlab.mit.edu/mturk_stimuli/bjmedina/mem_exp_atexts_2025/mem_stim_9.wav","0","main","","","false","mem_stim_9.wav","false","-1","","1","correct_rejection"
"","","","","","html-keyboard-response","50","655602","0.0-10.0-1.10","https://mcdermottlab.mit.edu/mturk_stimuli/bjmedina/mem_exp_atexts_2025/sequences/isi_16/len120/seq064_len120_s15_isi-1p0_0p0_16p0.json","10.780000000000001","true","ospmoysz4bs","","null","<span style=""font-size: 40px"">+</span>","null","","","","","","","","","",""
"","","","","","audio-button-response","51","658733","0.0-10.0-2.10","https://mcdermottlab.mit.edu/mturk_stimuli/bjmedina/mem_exp_atexts_2025/sequences/isi_16/len120/seq064_len120_s15_isi-1p0_0p0_16p0.json","10.780000000000001","true","ospmoysz4bs","","2520","https://mcdermottlab.mit.edu/mturk_stimuli/bjmedina/mem_exp_atexts_2025/mem_stim_24.wav","0","main","","","false","mem_stim_24.wav","false","-1","","1","correct_rejection"
"","","","","","html-keyboard-response","52","658787","0.0-10.0-1.11","https://mcdermottlab.mit.edu/mturk_stimuli/bjmedina/mem_exp_atexts_2025/sequences/isi_16/len120/seq064_len120_s15_isi-1p0_0p0_16p0.json","10.780000000000001","true","ospmoysz4bs","","null","<span style=""font-size: 40px"">+</span>","null","","","","","","","","","",""
"","","","","","audio-button-response","53","663622","0.0-10.0-2.11","https://mcdermottlab.mit.edu/mturk_stimuli/bjmedina/mem_exp_atexts_2025/sequences/isi_16/len120/seq064_len120_s15_isi-1p0_0p0_16p0.json","10.780000000000001","true","ospmoysz4bs","","4381","https://mcdermottlab.mit.edu/mturk_stimuli/bjmedina/mem_exp_atexts_2025/mem_stim_60.wav","0","main","","","false","mem_stim_60.wav","false","-1","","1","correct_rejection"
"","","","","","html-keyboard-response","54","663687","0.0-10.0-1.12","https://mcdermottlab.mit.edu/mturk_stimuli/bjmedina/mem_exp_atexts_2025/sequences/isi_16/len120/seq064_len120_s15_isi-1p0_0p0_16p0.json","10.780000000000001","true","ospmoysz4bs","","null","<span style=""font-size: 40px"">+</span>","null","","","","","","","","","",""
"","","","","","audio-button-response","55","668101","0.0-10.0-2.12","https://mcdermottlab.mit.edu/mturk_stimuli/bjmedina/mem_exp_atexts_2025/sequences/isi_16/len120/seq064_len120_s15_isi-1p0_0p0_16p0.json","10.780000000000001","true","ospmoysz4bs","","3512","https://mcdermottlab.mit.edu/mturk_stimuli/bjmedina/mem_exp_atexts_2025/mem_stim_44.wav","0","main","","","false","mem_stim_44.wav","false","-1","","1","correct_rejection"
"","","","","","html-keyboard-response","56","668157","0.0-10.0-1.13","https://mcdermottlab.mit.edu/mturk_stimuli/bjmedina/mem_exp_atexts_2025/sequences/isi_16/len120/seq064_len120_s15_isi-1p0_0p0_16p0.json","10.780000000000001","true","ospmoysz4bs","","null","<span style=""font-size: 40px"">+</span>","null","","","","","","","","","",""
"","","","","","audio-button-response","57","673357","0.0-10.0-2.13","https://mcdermottlab.mit.edu/mturk_stimuli/bjmedina/mem_exp_atexts_2025/sequences/isi_16/len120/seq064_len120_s15_isi-1p0_0p0_16p0.json","10.780000000000001","true","ospmoysz4bs","","4549","https://mcdermottlab.mit.edu/mturk_stimuli/bjmedina/mem_exp_atexts_2025/mem_stim_17.wav","2","main","","","false","mem_stim_17.wav","false","-1","","1","correct_rejection"
"","","","","","html-keyboard-response","58","673415","0.0-10.0-1.14","https://mcdermottlab.mit.edu/mturk_stimuli/bjmedina/mem_exp_atexts_2025/sequences/isi_16/len120/seq064_len120_s15_isi-1p0_0p0_16p0.json","10.780000000000001","true","ospmoysz4bs","","null","<span style=""font-size: 40px"">+</span>","null","","","","","","","","","",""
"","","","","","audio-button-response","59","677958","0.0-10.0-2.14","https://mcdermottlab.mit.edu/mturk_stimuli/bjmedina/mem_exp_atexts_2025/sequences/isi_16/len120/seq064_len120_s15_isi-1p0_0p0_16p0.json","10.780000000000001","true","ospmoysz4bs","","3531","https://mcdermottlab.mit.edu/mturk_stimuli/bjmedina/mem_exp_atexts_2025/mem_stim_21.wav","1","main","","","false","mem_stim_21.wav","false","-1","","0","false_alarm"
"","","","","","html-keyboard-response","60","678025","0.0-10.0-1.15","https://mcdermottlab.mit.edu/mturk_stimuli/bjmedina/mem_exp_atexts_2025/sequences/isi_16/len120/seq064_len120_s15_isi-1p0_0p0_16p0.json","10.780000000000001","true","ospmoysz4bs","","null","<span style=""font-size: 40px"">+</span>","null","","","","","","","","","",""
"","","","","","audio-button-response","61","683463","0.0-10.0-2.15","https://mcdermottlab.mit.edu/mturk_stimuli/bjmedina/mem_exp_atexts_2025/sequences/isi_16/len120/seq064_len120_s15_isi-1p0_0p0_16p0.json","10.780000000000001","true","ospmoysz4bs","","4571","https://mcdermottlab.mit.edu/mturk_stimuli/bjmedina/mem_exp_atexts_2025/mem_stim_22.wav","2","main","","","false","mem_stim_22.wav","false","-1","","1","correct_rejection"
"","","","","","html-keyboard-response","62","683528","0.0-10.0-1.16","https://mcdermottlab.mit.edu/mturk_stimuli/bjmedina/mem_exp_atexts_2025/sequences/isi_16/len120/seq064_len120_s15_isi-1p0_0p0_16p0.json","10.780000000000001","true","ospmoysz4bs","","null","<span style=""font-size: 40px"">+</span>","null","","","","","","","","","",""
"","","","","","audio-button-response","63","688333","0.0-10.0-2.16","https://mcdermottlab.mit.edu/mturk_stimuli/bjmedina/mem_exp_atexts_2025/sequences/isi_16/len120/seq064_len120_s15_isi-1p0_0p0_16p0.json","10.780000000000001","true","ospmoysz4bs","","4091","https://mcdermottlab.mit.edu/mturk_stimuli/bjmedina/mem_exp_atexts_2025/mem_stim_40.wav","1","main","","","false","mem_stim_40.wav","false","-1","","0","false_alarm"
"","","","","","html-keyboard-response","64","688398","0.0-10.0-1.17","https://mcdermottlab.mit.edu/mturk_stimuli/bjmedina/mem_exp_atexts_2025/sequences/isi_16/len120/seq064_len120_s15_isi-1p0_0p0_16p0.json","10.780000000000001","true","ospmoysz4bs","","null","<span style=""font-size: 40px"">+</span>","null","","","","","","","","","",""
"","","","","","audio-button-response","65","691337","0.0-10.0-2.17","https://mcdermottlab.mit.edu/mturk_stimuli/bjmedina/mem_exp_atexts_2025/sequences/isi_16/len120/seq064_len120_s15_isi-1p0_0p0_16p0.json","10.780000000000001","true","ospmoysz4bs","","2400","https://mcdermottlab.mit.edu/mturk_stimuli/bjmedina/mem_exp_atexts_2025/mem_stim_53.wav","0","main","","","false","mem_stim_53.wav","false","-1","","1","correct_rejection"
"","","","","","html-keyboard-response","66","691396","0.0-10.0-1.18","https://mcdermottlab.mit.edu/mturk_stimuli/bjmedina/mem_exp_atexts_2025/sequences/isi_16/len120/seq064_len120_s15_isi-1p0_0p0_16p0.json","10.780000000000001","true","ospmoysz4bs","","null","<span style=""font-size: 40px"">+</span>","null","","","","","","","","","",""
"","","","","","audio-button-response","67","695130","0.0-10.0-2.18","https://mcdermottlab.mit.edu/mturk_stimuli/bjmedina/mem_exp_atexts_2025/sequences/isi_16/len120/seq064_len120_s15_isi-1p0_0p0_16p0.json","10.780000000000001","true","ospmoysz4bs","","2760","https://mcdermottlab.mit.edu/mturk_stimuli/bjmedina/mem_exp_atexts_2025/mem_stim_18.wav","0","main","","","false","mem_stim_18.wav","false","-1","","1","correct_rejection"
"","","","","","html-keyboard-response","68","695189","0.0-10.0-1.19","https://mcdermottlab.mit.edu/mturk_stimuli/bjmedina/mem_exp_atexts_2025/sequences/isi_16/len120/seq064_len120_s15_isi-1p0_0p0_16p0.json","10.780000000000001","true","ospmoysz4bs","","null","<span style=""font-size: 40px"">+</span>","null","","","","","","","","","",""
"","","","","","audio-button-response","69","698286","0.0-10.0-2.19","https://mcdermottlab.mit.edu/mturk_stimuli/bjmedina/mem_exp_atexts_2025/sequences/isi_16/len120/seq064_len120_s15_isi-1p0_0p0_16p0.json","10.780000000000001","true","ospmoysz4bs","","3091","https://mcdermottlab.mit.edu/mturk_stimuli/bjmedina/mem_exp_atexts_2025/mem_stim_65.wav","3","main","","","true","mem_stim_65.wav","false","16","","0","miss"
"","","","","","html-keyboard-response","70","698351","0.0-10.0-1.20","https://mcdermottlab.mit.edu/mturk_stimuli/bjmedina/mem_exp_atexts_2025/sequences/isi_16/len120/seq064_len120_s15_isi-1p0_0p0_16p0.json","10.780000000000001","true","ospmoysz4bs","","null","<span style=""font-size: 40px"">+</span>","null","","","","","","","","","",""
"","","","","","audio-button-response","71","703069","0.0-10.0-2.20","https://mcdermottlab.mit.edu/mturk_stimuli/bjmedina/mem_exp_atexts_2025/sequences/isi_16/len120/seq064_len120_s15_isi-1p0_0p0_16p0.json","10.780000000000001","true","ospmoysz4bs","","3928","https://mcdermottlab.mit.edu/mturk_stimuli/bjmedina/mem_exp_atexts_2025/mem_stim_13.wav","1","main","","","false","mem_stim_13.wav","false","-1","","0","false_alarm"
"","","","","","html-keyboard-response","72","703128","0.0-10.0-1.21","https://mcdermottlab.mit.edu/mturk_stimuli/bjmedina/mem_exp_atexts_2025/sequences/isi_16/len120/seq064_len120_s15_isi-1p0_0p0_16p0.json","10.780000000000001","true","ospmoysz4bs","","null","<span style=""font-size: 40px"">+</span>","null","","","","","","","","","",""
"","","","","","audio-button-response","73","706469","0.0-10.0-2.21","https://mcdermottlab.mit.edu/mturk_stimuli/bjmedina/mem_exp_atexts_2025/sequences/isi_16/len120/seq064_len120_s15_isi-1p0_0p0_16p0.json","10.780000000000001","true","ospmoysz4bs","","2728","https://mcdermottlab.mit.edu/mturk_stimuli/bjmedina/mem_exp_atexts_2025/mem_stim_61.wav","1","main","","","false","mem_stim_61.wav","false","-1","","0","false_alarm"
"","","","","","html-keyboard-response","74","706527","0.0-10.0-1.22","https://mcdermottlab.mit.edu/mturk_stimuli/bjmedina/mem_exp_atexts_2025/sequences/isi_16/len120/seq064_len120_s15_isi-1p0_0p0_16p0.json","10.780000000000001","true","ospmoysz4bs","","null","<span style=""font-size: 40px"">+</span>","null","","","","","","","","","",""
"","","","","","audio-button-response","75","711193","0.0-10.0-2.22","https://mcdermottlab.mit.edu/mturk_stimuli/bjmedina/mem_exp_atexts_2025/sequences/isi_16/len120/seq064_len120_s15_isi-1p0_0p0_16p0.json","10.780000000000001","true","ospmoysz4bs","","3979","https://mcdermottlab.mit.edu/mturk_stimuli/bjmedina/mem_exp_atexts_2025/mem_stim_74.wav","2","main","","","false","mem_stim_74.wav","false","-1","","1","correct_rejection"
"","","","","","html-keyboard-response","76","711258","0.0-10.0-1.23","https://mcdermottlab.mit.edu/mturk_stimuli/bjmedina/mem_exp_atexts_2025/sequences/isi_16/len120/seq064_len120_s15_isi-1p0_0p0_16p0.json","10.780000000000001","true","ospmoysz4bs","","null","<span style=""font-size: 40px"">+</span>","null","","","","","","","","","",""
"","","","","","audio-button-response","77","716513","0.0-10.0-2.23","https://mcdermottlab.mit.edu/mturk_stimuli/bjmedina/mem_exp_atexts_2025/sequences/isi_16/len120/seq064_len120_s15_isi-1p0_0p0_16p0.json","10.780000000000001","true","ospmoysz4bs","","4648","https://mcdermottlab.mit.edu/mturk_stimuli/bjmedina/mem_exp_atexts_2025/mem_stim_69.wav","0","main","","","false","mem_stim_69.wav","false","-1","","1","correct_rejection"
"","","","","","html-keyboard-response","78","716576","0.0-10.0-1.24","https://mcdermottlab.mit.edu/mturk_stimuli/bjmedina/mem_exp_atexts_2025/sequences/isi_16/len120/seq064_len120_s15_isi-1p0_0p0_16p0.json","10.780000000000001","true","ospmoysz4bs","","null","<span style=""font-size: 40px"">+</span>","null","","","","","","","","","",""
"","","","","","audio-button-response","79","719071","0.0-10.0-2.24","https://mcdermottlab.mit.edu/mturk_stimuli/bjmedina/mem_exp_atexts_2025/sequences/isi_16/len120/seq064_len120_s15_isi-1p0_0p0_16p0.json","10.780000000000001","true","ospmoysz4bs","","2499","https://mcdermottlab.mit.edu/mturk_stimuli/bjmedina/mem_exp_atexts_2025/mem_stim_64.wav","3","main","","","true","mem_stim_64.wav","false","16","","0","miss"
"","","","","","html-keyboard-response","80","719129","0.0-10.0-1.25","https://mcdermottlab.mit.edu/mturk_stimuli/bjmedina/mem_exp_atexts_2025/sequences/isi_16/len120/seq064_len120_s15_isi-1p0_0p0_16p0.json","10.780000000000001","true","ospmoysz4bs","","null","<span style=""font-size: 40px"">+</span>","null","","","","","","","","","",""
"","","","","","audio-button-response","81","724311","0.0-10.0-2.25","https://mcdermottlab.mit.edu/mturk_stimuli/bjmedina/mem_exp_atexts_2025/sequences/isi_16/len120/seq064_len120_s15_isi-1p0_0p0_16p0.json","10.780000000000001","true","ospmoysz4bs","","4200","https://mcdermottlab.mit.edu/mturk_stimuli/bjmedina/mem_exp_atexts_2025/mem_stim_0.wav","3","main","","","false","mem_stim_0.wav","false","-1","","1","correct_rejection"
"","","","","","html-keyboard-response","82","724376","0.0-10.0-1.26","https://mcdermottlab.mit.edu/mturk_stimuli/bjmedina/mem_exp_atexts_2025/sequences/isi_16/len120/seq064_len120_s15_isi-1p0_0p0_16p0.json","10.780000000000001","true","ospmoysz4bs","","null","<span style=""font-size: 40px"">+</span>","null","","","","","","","","","",""
"","","","","","audio-button-response","83","728236","0.0-10.0-2.26","https://mcdermottlab.mit.edu/mturk_stimuli/bjmedina/mem_exp_atexts_2025/sequences/isi_16/len120/seq064_len120_s15_isi-1p0_0p0_16p0.json","10.780000000000001","true","ospmoysz4bs","","3000","https://mcdermottlab.mit.edu/mturk_stimuli/bjmedina/mem_exp_atexts_2025/mem_stim_31.wav","3","main","","","false","mem_stim_31.wav","false","-1","","1","correct_rejection"
"","","","","","html-keyboard-response","84","728303","0.0-10.0-1.27","https://mcdermottlab.mit.edu/mturk_stimuli/bjmedina/mem_exp_atexts_2025/sequences/isi_16/len120/seq064_len120_s15_isi-1p0_0p0_16p0.json","10.780000000000001","true","ospmoysz4bs","","null","<span style=""font-size: 40px"">+</span>","null","","","","","","","","","",""
"","","","","","audio-button-response","85","731678","0.0-10.0-2.27","https://mcdermottlab.mit.edu/mturk_stimuli/bjmedina/mem_exp_atexts_2025/sequences/isi_16/len120/seq064_len120_s15_isi-1p0_0p0_16p0.json","10.780000000000001","true","ospmoysz4bs","","3379","https://mcdermottlab.mit.edu/mturk_stimuli/bjmedina/mem_exp_atexts_2025/mem_stim_31.wav","3","main","","","true","mem_stim_31.wav","true","0","","0","miss"
"","","","","","html-keyboard-response","86","731735","0.0-10.0-1.28","https://mcdermottlab.mit.edu/mturk_stimuli/bjmedina/mem_exp_atexts_2025/sequences/isi_16/len120/seq064_len120_s15_isi-1p0_0p0_16p0.json","10.780000000000001","true","ospmoysz4bs","","null","<span style=""font-size: 40px"">+</span>","null","","","","","","","","","",""
"","","","","","audio-button-response","87","734312","0.0-10.0-2.28","https://mcdermottlab.mit.edu/mturk_stimuli/bjmedina/mem_exp_atexts_2025/sequences/isi_16/len120/seq064_len120_s15_isi-1p0_0p0_16p0.json","10.780000000000001","true","ospmoysz4bs","","2579","https://mcdermottlab.mit.edu/mturk_stimuli/bjmedina/mem_exp_atexts_2025/mem_stim_60.wav","3","main","","","true","mem_stim_60.wav","false","16","","0","miss"
"","","","","","html-keyboard-response","88","734376","0.0-10.0-1.29","https://mcdermottlab.mit.edu/mturk_stimuli/bjmedina/mem_exp_atexts_2025/sequences/isi_16/len120/seq064_len120_s15_isi-1p0_0p0_16p0.json","10.780000000000001","true","ospmoysz4bs","","null","<span style=""font-size: 40px"">+</span>","null","","","","","","","","","",""
"","","","","","audio-button-response","89","736943","0.0-10.0-2.29","https://mcdermottlab.mit.edu/mturk_stimuli/bjmedina/mem_exp_atexts_2025/sequences/isi_16/len120/seq064_len120_s15_isi-1p0_0p0_16p0.json","10.780000000000001","true","ospmoysz4bs","","2571","https://mcdermottlab.mit.edu/mturk_stimuli/bjmedina/mem_exp_atexts_2025/mem_stim_44.wav","3","main","","","true","mem_stim_44.wav","false","16","","0","miss"
"","","","","","html-keyboard-response","90","736999","0.0-10.0-1.30","https://mcdermottlab.mit.edu/mturk_stimuli/bjmedina/mem_exp_atexts_2025/sequences/isi_16/len120/seq064_len120_s15_isi-1p0_0p0_16p0.json","10.780000000000001","true","ospmoysz4bs","","null","<span style=""font-size: 40px"">+</span>","null","","","","","","","","","",""
"","","","","","audio-button-response","91","740737","0.0-10.0-2.30","https://mcdermottlab.mit.edu/mturk_stimuli/bjmedina/mem_exp_atexts_2025/sequences/isi_16/len120/seq064_len120_s15_isi-1p0_0p0_16p0.json","10.780000000000001","true","ospmoysz4bs","","2661","https://mcdermottlab.mit.edu/mturk_stimuli/bjmedina/mem_exp_atexts_2025/mem_stim_12.wav","1","main","","","false","mem_stim_12.wav","false","-1","","0","false_alarm"
"","","","","","html-keyboard-response","92","740796","0.0-10.0-1.31","https://mcdermottlab.mit.edu/mturk_stimuli/bjmedina/mem_exp_atexts_2025/sequences/isi_16/len120/seq064_len120_s15_isi-1p0_0p0_16p0.json","10.780000000000001","true","ospmoysz4bs","","null","<span style=""font-size: 40px"">+</span>","null","","","","","","","","","",""
"","","","","","audio-button-response","93","744080","0.0-10.0-2.31","https://mcdermottlab.mit.edu/mturk_stimuli/bjmedina/mem_exp_atexts_2025/sequences/isi_16/len120/seq064_len120_s15_isi-1p0_0p0_16p0.json","10.780000000000001","true","ospmoysz4bs","","2509","https://mcdermottlab.mit.edu/mturk_stimuli/bjmedina/mem_exp_atexts_2025/mem_stim_49.wav","0","main","","","false","mem_stim_49.wav","false","-1","","1","correct_rejection"
"","","","","","html-keyboard-response","94","744140","0.0-10.0-1.32","https://mcdermottlab.mit.edu/mturk_stimuli/bjmedina/mem_exp_atexts_2025/sequences/isi_16/len120/seq064_len120_s15_isi-1p0_0p0_16p0.json","10.780000000000001","true","ospmoysz4bs","","null","<span style=""font-size: 40px"">+</span>","null","","","","","","","","","",""
"","","","","","audio-button-response","95","748965","0.0-10.0-2.32","https://mcdermottlab.mit.edu/mturk_stimuli/bjmedina/mem_exp_atexts_2025/sequences/isi_16/len120/seq064_len120_s15_isi-1p0_0p0_16p0.json","10.780000000000001","true","ospmoysz4bs","","4200","https://mcdermottlab.mit.edu/mturk_stimuli/bjmedina/mem_exp_atexts_2025/mem_stim_70.wav","0","main","","","false","mem_stim_70.wav","false","-1","","1","correct_rejection"
"","","","","","html-keyboard-response","96","749031","0.0-10.0-1.33","https://mcdermottlab.mit.edu/mturk_stimuli/bjmedina/mem_exp_atexts_2025/sequences/isi_16/len120/seq064_len120_s15_isi-1p0_0p0_16p0.json","10.780000000000001","true","ospmoysz4bs","","null","<span style=""font-size: 40px"">+</span>","null","","","","","","","","","",""
"","","","","","audio-button-response","97","751768","0.0-10.0-2.33","https://mcdermottlab.mit.edu/mturk_stimuli/bjmedina/mem_exp_atexts_2025/sequences/isi_16/len120/seq064_len120_s15_isi-1p0_0p0_16p0.json","10.780000000000001","true","ospmoysz4bs","","2741","https://mcdermottlab.mit.edu/mturk_stimuli/bjmedina/mem_exp_atexts_2025/mem_stim_40.wav","3","main","","","true","mem_stim_40.wav","false","16","","0","miss"
"","","","","","html-keyboard-response","98","751826","0.0-10.0-1.34","https://mcdermottlab.mit.edu/mturk_stimuli/bjmedina/mem_exp_atexts_2025/sequences/isi_16/len120/seq064_len120_s15_isi-1p0_0p0_16p0.json","10.780000000000001","true","ospmoysz4bs","","null","<span style=""font-size: 40px"">+</span>","null","","","","","","","","","",""
"","","","","","audio-button-response","99","755501","0.0-10.0-2.34","https://mcdermottlab.mit.edu/mturk_stimuli/bjmedina/mem_exp_atexts_2025/sequences/isi_16/len120/seq064_len120_s15_isi-1p0_0p0_16p0.json","10.780000000000001","true","ospmoysz4bs","","3680","https://mcdermottlab.mit.edu/mturk_stimuli/bjmedina/mem_exp_atexts_2025/mem_stim_53.wav","3","main","","","true","mem_stim_53.wav","false","16","","0","miss"
"","","","","","html-keyboard-response","100","755560","0.0-10.0-1.35","https://mcdermottlab.mit.edu/mturk_stimuli/bjmedina/mem_exp_atexts_2025/sequences/isi_16/len120/seq064_len120_s15_isi-1p0_0p0_16p0.json","10.780000000000001","true","ospmoysz4bs","","null","<span style=""font-size: 40px"">+</span>","null","","","","","","","","","",""
"","","","","","audio-button-response","101","761332","0.0-10.0-2.35","https://mcdermottlab.mit.edu/mturk_stimuli/bjmedina/mem_exp_atexts_2025/sequences/isi_16/len120/seq064_len120_s15_isi-1p0_0p0_16p0.json","10.780000000000001","true","ospmoysz4bs","","4821","https://mcdermottlab.mit.edu/mturk_stimuli/bjmedina/mem_exp_atexts_2025/mem_stim_47.wav","3","main","","","false","mem_stim_47.wav","false","-1","","1","correct_rejection"
"","","","","","html-keyboard-response","102","761400","0.0-10.0-1.36","https://mcdermottlab.mit.edu/mturk_stimuli/bjmedina/mem_exp_atexts_2025/sequences/isi_16/len120/seq064_len120_s15_isi-1p0_0p0_16p0.json","10.780000000000001","true","ospmoysz4bs","","null","<span style=""font-size: 40px"">+</span>","null","","","","","","","","","",""
"","","","","","audio-button-response","103","766827","0.0-10.0-2.36","https://mcdermottlab.mit.edu/mturk_stimuli/bjmedina/mem_exp_atexts_2025/sequences/isi_16/len120/seq064_len120_s15_isi-1p0_0p0_16p0.json","10.780000000000001","true","ospmoysz4bs","","4640","https://mcdermottlab.mit.edu/mturk_stimuli/bjmedina/mem_exp_atexts_2025/mem_stim_68.wav","1","main","","","false","mem_stim_68.wav","false","-1","","0","false_alarm"
"","","","","","html-keyboard-response","104","766891","0.0-10.0-1.37","https://mcdermottlab.mit.edu/mturk_stimuli/bjmedina/mem_exp_atexts_2025/sequences/isi_16/len120/seq064_len120_s15_isi-1p0_0p0_16p0.json","10.780000000000001","true","ospmoysz4bs","","null","<span style=""font-size: 40px"">+</span>","null","","","","","","","","","",""
"","","","","","audio-button-response","105","771899","0.0-10.0-2.37","https://mcdermottlab.mit.edu/mturk_stimuli/bjmedina/mem_exp_atexts_2025/sequences/isi_16/len120/seq064_len120_s15_isi-1p0_0p0_16p0.json","10.780000000000001","true","ospmoysz4bs","","3952","https://mcdermottlab.mit.edu/mturk_stimuli/bjmedina/mem_exp_atexts_2025/mem_stim_41.wav","1","main","","","false","mem_stim_41.wav","false","-1","","0","false_alarm"
"","","","","","html-keyboard-response","106","771959","0.0-10.0-1.38","https://mcdermottlab.mit.edu/mturk_stimuli/bjmedina/mem_exp_atexts_2025/sequences/isi_16/len120/seq064_len120_s15_isi-1p0_0p0_16p0.json","10.780000000000001","true","ospmoysz4bs","","null","<span style=""font-size: 40px"">+</span>","null","","","","","","","","","",""
"","","","","","audio-button-response","107","775581","0.0-10.0-2.38","https://mcdermottlab.mit.edu/mturk_stimuli/bjmedina/mem_exp_atexts_2025/sequences/isi_16/len120/seq064_len120_s15_isi-1p0_0p0_16p0.json","10.780000000000001","true","ospmoysz4bs","","3621","https://mcdermottlab.mit.edu/mturk_stimuli/bjmedina/mem_exp_atexts_2025/mem_stim_61.wav","2","main","","","true","mem_stim_61.wav","false","16","","0","miss"
"","","","","","html-keyboard-response","108","775641","0.0-10.0-1.39","https://mcdermottlab.mit.edu/mturk_stimuli/bjmedina/mem_exp_atexts_2025/sequences/isi_16/len120/seq064_len120_s15_isi-1p0_0p0_16p0.json","10.780000000000001","true","ospmoysz4bs","","null","<span style=""font-size: 40px"">+</span>","null","","","","","","","","","",""
"","","","","","audio-button-response","109","780741","0.0-10.0-2.39","https://mcdermottlab.mit.edu/mturk_stimuli/bjmedina/mem_exp_atexts_2025/sequences/isi_16/len120/seq064_len120_s15_isi-1p0_0p0_16p0.json","10.780000000000001","true","ospmoysz4bs","","4120","https://mcdermottlab.mit.edu/mturk_stimuli/bjmedina/mem_exp_atexts_2025/mem_stim_15.wav","3","main","","","false","mem_stim_15.wav","false","-1","","1","correct_rejection"
"","","","","","html-keyboard-response","110","780799","0.0-10.0-1.40","https://mcdermottlab.mit.edu/mturk_stimuli/bjmedina/mem_exp_atexts_2025/sequences/isi_16/len120/seq064_len120_s15_isi-1p0_0p0_16p0.json","10.780000000000001","true","ospmoysz4bs","","null","<span style=""font-size: 40px"">+</span>","null","","","","","","","","","",""
"","","","","","audio-button-response","111","785513","0.0-10.0-2.40","https://mcdermottlab.mit.edu/mturk_stimuli/bjmedina/mem_exp_atexts_2025/sequences/isi_16/len120/seq064_len120_s15_isi-1p0_0p0_16p0.json","10.780000000000001","true","ospmoysz4bs","","4709","https://mcdermottlab.mit.edu/mturk_stimuli/bjmedina/mem_exp_atexts_2025/mem_stim_69.wav","3","main","","","true","mem_stim_69.wav","false","16","","0","miss"
"","","","","","html-keyboard-response","112","785578","0.0-10.0-1.41","https://mcdermottlab.mit.edu/mturk_stimuli/bjmedina/mem_exp_atexts_2025/sequences/isi_16/len120/seq064_len120_s15_isi-1p0_0p0_16p0.json","10.780000000000001","true","ospmoysz4bs","","null","<span style=""font-size: 40px"">+</span>","null","","","","","","","","","",""
"","","","","","audio-button-response","113","790081","0.0-10.0-2.41","https://mcdermottlab.mit.edu/mturk_stimuli/bjmedina/mem_exp_atexts_2025/sequences/isi_16/len120/seq064_len120_s15_isi-1p0_0p0_16p0.json","10.780000000000001","true","ospmoysz4bs","","3469","https://mcdermottlab.mit.edu/mturk_stimuli/bjmedina/mem_exp_atexts_2025/mem_stim_51.wav","0","main","","","false","mem_stim_51.wav","false","-1","","1","correct_rejection"
"","","","","","html-keyboard-response","114","790146","0.0-10.0-1.42","https://mcdermottlab.mit.edu/mturk_stimuli/bjmedina/mem_exp_atexts_2025/sequences/isi_16/len120/seq064_len120_s15_isi-1p0_0p0_16p0.json","10.780000000000001","true","ospmoysz4bs","","null","<span style=""font-size: 40px"">+</span>","null","","","","","","","","","",""
"","","","","","audio-button-response","115","794172","0.0-10.0-2.42","https://mcdermottlab.mit.edu/mturk_stimuli/bjmedina/mem_exp_atexts_2025/sequences/isi_16/len120/seq064_len120_s15_isi-1p0_0p0_16p0.json","10.780000000000001","true","ospmoysz4bs","","3171","https://mcdermottlab.mit.edu/mturk_stimuli/bjmedina/mem_exp_atexts_2025/mem_stim_66.wav","1","main","","","false","mem_stim_66.wav","false","-1","","0","false_alarm"
"","","","","","html-keyboard-response","116","794229","0.0-10.0-1.43","https://mcdermottlab.mit.edu/mturk_stimuli/bjmedina/mem_exp_atexts_2025/sequences/isi_16/len120/seq064_len120_s15_isi-1p0_0p0_16p0.json","10.780000000000001","true","ospmoysz4bs","","null","<span style=""font-size: 40px"">+</span>","null","","","","","","","","","",""
"","","","","","audio-button-response","117","800157","0.0-10.0-2.43","https://mcdermottlab.mit.edu/mturk_stimuli/bjmedina/mem_exp_atexts_2025/sequences/isi_16/len120/seq064_len120_s15_isi-1p0_0p0_16p0.json","10.780000000000001","true","ospmoysz4bs","","5309","https://mcdermottlab.mit.edu/mturk_stimuli/bjmedina/mem_exp_atexts_2025/mem_stim_63.wav","3","main","","","false","mem_stim_63.wav","false","-1","","1","correct_rejection"
"","","","","","html-keyboard-response","118","800210","0.0-10.0-1.44","https://mcdermottlab.mit.edu/mturk_stimuli/bjmedina/mem_exp_atexts_2025/sequences/isi_16/len120/seq064_len120_s15_isi-1p0_0p0_16p0.json","10.780000000000001","true","ospmoysz4bs","","null","<span style=""font-size: 40px"">+</span>","null","","","","","","","","","",""
"","","","","","audio-button-response","119","806513","0.0-10.0-2.44","https://mcdermottlab.mit.edu/mturk_stimuli/bjmedina/mem_exp_atexts_2025/sequences/isi_16/len120/seq064_len120_s15_isi-1p0_0p0_16p0.json","10.780000000000001","true","ospmoysz4bs","","5349","https://mcdermottlab.mit.edu/mturk_stimuli/bjmedina/mem_exp_atexts_2025/mem_stim_54.wav","0","main","","","false","mem_stim_54.wav","false","-1","","1","correct_rejection"
"","","","","","html-keyboard-response","120","806579","0.0-10.0-1.45","https://mcdermottlab.mit.edu/mturk_stimuli/bjmedina/mem_exp_atexts_2025/sequences/isi_16/len120/seq064_len120_s15_isi-1p0_0p0_16p0.json","10.780000000000001","true","ospmoysz4bs","","null","<span style=""font-size: 40px"">+</span>","null","","","","","","","","","",""
"","","","","","audio-button-response","121","814231","0.0-10.0-2.45","https://mcdermottlab.mit.edu/mturk_stimuli/bjmedina/mem_exp_atexts_2025/sequences/isi_16/len120/seq064_len120_s15_isi-1p0_0p0_16p0.json","10.780000000000001","true","ospmoysz4bs","","6608","https://mcdermottlab.mit.edu/mturk_stimuli/bjmedina/mem_exp_atexts_2025/mem_stim_2.wav","1","main","","","false","mem_stim_2.wav","false","-1","","0","false_alarm"
"","","","","","html-keyboard-response","122","814287","0.0-10.0-1.46","https://mcdermottlab.mit.edu/mturk_stimuli/bjmedina/mem_exp_atexts_2025/sequences/isi_16/len120/seq064_len120_s15_isi-1p0_0p0_16p0.json","10.780000000000001","true","ospmoysz4bs","","null","<span style=""font-size: 40px"">+</span>","null","","","","","","","","","",""
"","","","","","audio-button-response","123","818151","0.0-10.0-2.46","https://mcdermottlab.mit.edu/mturk_stimuli/bjmedina/mem_exp_atexts_2025/sequences/isi_16/len120/seq064_len120_s15_isi-1p0_0p0_16p0.json","10.780000000000001","true","ospmoysz4bs","","2909","https://mcdermottlab.mit.edu/mturk_stimuli/bjmedina/mem_exp_atexts_2025/mem_stim_32.wav","2","main","","","false","mem_stim_32.wav","false","-1","","1","correct_rejection"
"","","","","","html-keyboard-response","124","818207","0.0-10.0-1.47","https://mcdermottlab.mit.edu/mturk_stimuli/bjmedina/mem_exp_atexts_2025/sequences/isi_16/len120/seq064_len120_s15_isi-1p0_0p0_16p0.json","10.780000000000001","true","ospmoysz4bs","","null","<span style=""font-size: 40px"">+</span>","null","","","","","","","","","",""
"","","","","","audio-button-response","125","820916","0.0-10.0-2.47","https://mcdermottlab.mit.edu/mturk_stimuli/bjmedina/mem_exp_atexts_2025/sequences/isi_16/len120/seq064_len120_s15_isi-1p0_0p0_16p0.json","10.780000000000001","true","ospmoysz4bs","","2699","https://mcdermottlab.mit.edu/mturk_stimuli/bjmedina/mem_exp_atexts_2025/mem_stim_32.wav","3","main","","","true","mem_stim_32.wav","true","0","","0","miss"
"","","","","","html-keyboard-response","126","820980","0.0-10.0-1.48","https://mcdermottlab.mit.edu/mturk_stimuli/bjmedina/mem_exp_atexts_2025/sequences/isi_16/len120/seq064_len120_s15_isi-1p0_0p0_16p0.json","10.780000000000001","true","ospmoysz4bs","","null","<span style=""font-size: 40px"">+</span>","null","","","","","","","","","",""
"","","","","","audio-button-response","127","825152","0.0-10.0-2.48","https://mcdermottlab.mit.edu/mturk_stimuli/bjmedina/mem_exp_atexts_2025/sequences/isi_16/len120/seq064_len120_s15_isi-1p0_0p0_16p0.json","10.780000000000001","true","ospmoysz4bs","","4168","https://mcdermottlab.mit.edu/mturk_stimuli/bjmedina/mem_exp_atexts_2025/mem_stim_49.wav","3","main","","","true","mem_stim_49.wav","false","16","","0","miss"
"","","","","","html-keyboard-response","128","825209","0.0-10.0-1.49","https://mcdermottlab.mit.edu/mturk_stimuli/bjmedina/mem_exp_atexts_2025/sequences/isi_16/len120/seq064_len120_s15_isi-1p0_0p0_16p0.json","10.780000000000001","true","ospmoysz4bs","","null","<span style=""font-size: 40px"">+</span>","null","","","","","","","","","",""
"","","","","","audio-button-response","129","828901","0.0-10.0-2.49","https://mcdermottlab.mit.edu/mturk_stimuli/bjmedina/mem_exp_atexts_2025/sequences/isi_16/len120/seq064_len120_s15_isi-1p0_0p0_16p0.json","10.780000000000001","true","ospmoysz4bs","","2651","https://mcdermottlab.mit.edu/mturk_stimuli/bjmedina/mem_exp_atexts_2025/mem_stim_58.wav","2","main","","","false","mem_stim_58.wav","false","-1","","1","correct_rejection"
"","","","","","html-keyboard-response","130","828956","0.0-10.0-1.50","https://mcdermottlab.mit.edu/mturk_stimuli/bjmedina/mem_exp_atexts_2025/sequences/isi_16/len120/seq064_len120_s15_isi-1p0_0p0_16p0.json","10.780000000000001","true","ospmoysz4bs","","null","<span style=""font-size: 40px"">+</span>","null","","","","","","","","","",""
"","","","","","audio-button-response","131","833121","0.0-10.0-2.50","https://mcdermottlab.mit.edu/mturk_stimuli/bjmedina/mem_exp_atexts_2025/sequences/isi_16/len120/seq064_len120_s15_isi-1p0_0p0_16p0.json","10.780000000000001","true","ospmoysz4bs","","3309","https://mcdermottlab.mit.edu/mturk_stimuli/bjmedina/mem_exp_atexts_2025/mem_stim_73.wav","1","main","","","false","mem_stim_73.wav","false","-1","","0","false_alarm"
"","","","","","html-keyboard-response","132","833179","0.0-10.0-1.51","https://mcdermottlab.mit.edu/mturk_stimuli/bjmedina/mem_exp_atexts_2025/sequences/isi_16/len120/seq064_len120_s15_isi-1p0_0p0_16p0.json","10.780000000000001","true","ospmoysz4bs","","null","<span style=""font-size: 40px"">+</span>","null","","","","","","","","","",""
"","","","","","audio-button-response","133","836836","0.0-10.0-2.51","https://mcdermottlab.mit.edu/mturk_stimuli/bjmedina/mem_exp_atexts_2025/sequences/isi_16/len120/seq064_len120_s15_isi-1p0_0p0_16p0.json","10.780000000000001","true","ospmoysz4bs","","3040","https://mcdermottlab.mit.edu/mturk_stimuli/bjmedina/mem_exp_atexts_2025/mem_stim_10.wav","2","main","","","false","mem_stim_10.wav","false","-1","","1","correct_rejection"
"","","","","","html-keyboard-response","134","836895","0.0-10.0-1.52","https://mcdermottlab.mit.edu/mturk_stimuli/bjmedina/mem_exp_atexts_2025/sequences/isi_16/len120/seq064_len120_s15_isi-1p0_0p0_16p0.json","10.780000000000001","true","ospmoysz4bs","","null","<span style=""font-size: 40px"">+</span>","null","","","","","","","","","",""
"","","","","","audio-button-response","135","839645","0.0-10.0-2.52","https://mcdermottlab.mit.edu/mturk_stimuli/bjmedina/mem_exp_atexts_2025/sequences/isi_16/len120/seq064_len120_s15_isi-1p0_0p0_16p0.json","10.780000000000001","true","ospmoysz4bs","","2749","https://mcdermottlab.mit.edu/mturk_stimuli/bjmedina/mem_exp_atexts_2025/mem_stim_47.wav","2","main","","","true","mem_stim_47.wav","false","16","","0","miss"
"","","","","","html-keyboard-response","136","839705","0.0-10.0-1.53","https://mcdermottlab.mit.edu/mturk_stimuli/bjmedina/mem_exp_atexts_2025/sequences/isi_16/len120/seq064_len120_s15_isi-1p0_0p0_16p0.json","10.780000000000001","true","ospmoysz4bs","","null","<span style=""font-size: 40px"">+</span>","null","","","","","","","","","",""
"","","","","","audio-button-response","137","845087","0.0-10.0-2.53","https://mcdermottlab.mit.edu/mturk_stimuli/bjmedina/mem_exp_atexts_2025/sequences/isi_16/len120/seq064_len120_s15_isi-1p0_0p0_16p0.json","10.780000000000001","true","ospmoysz4bs","","5379","https://mcdermottlab.mit.edu/mturk_stimuli/bjmedina/mem_exp_atexts_2025/mem_stim_68.wav","2","main","","","true","mem_stim_68.wav","false","16","","0","miss"
"","","","","","html-keyboard-response","138","845150","0.0-10.0-1.54","https://mcdermottlab.mit.edu/mturk_stimuli/bjmedina/mem_exp_atexts_2025/sequences/isi_16/len120/seq064_len120_s15_isi-1p0_0p0_16p0.json","10.780000000000001","true","ospmoysz4bs","","null","<span style=""font-size: 40px"">+</span>","null","","","","","","","","","",""
"","","","","","audio-button-response","139","847971","0.0-10.0-2.54","https://mcdermottlab.mit.edu/mturk_stimuli/bjmedina/mem_exp_atexts_2025/sequences/isi_16/len120/seq064_len120_s15_isi-1p0_0p0_16p0.json","10.780000000000001","true","ospmoysz4bs","","2821","https://mcdermottlab.mit.edu/mturk_stimuli/bjmedina/mem_exp_atexts_2025/mem_stim_41.wav","3","main","","","true","mem_stim_41.wav","false","16","","0","miss"
"","","","","","html-keyboard-response","140","848028","0.0-10.0-1.55","https://mcdermottlab.mit.edu/mturk_stimuli/bjmedina/mem_exp_atexts_2025/sequences/isi_16/len120/seq064_len120_s15_isi-1p0_0p0_16p0.json","10.780000000000001","true","ospmoysz4bs","","null","<span style=""font-size: 40px"">+</span>","null","","","","","","","","","",""
"","","","","","audio-button-response","141","852150","0.0-10.0-2.55","https://mcdermottlab.mit.edu/mturk_stimuli/bjmedina/mem_exp_atexts_2025/sequences/isi_16/len120/seq064_len120_s15_isi-1p0_0p0_16p0.json","10.780000000000001","true","ospmoysz4bs","","3139","https://mcdermottlab.mit.edu/mturk_stimuli/bjmedina/mem_exp_atexts_2025/mem_stim_3.wav","0","main","","","false","mem_stim_3.wav","false","-1","","1","correct_rejection"
"","","","","","html-keyboard-response","142","852216","0.0-10.0-1.56","https://mcdermottlab.mit.edu/mturk_stimuli/bjmedina/mem_exp_atexts_2025/sequences/isi_16/len120/seq064_len120_s15_isi-1p0_0p0_16p0.json","10.780000000000001","true","ospmoysz4bs","","null","<span style=""font-size: 40px"">+</span>","null","","","","","","","","","",""
"","","","","","audio-button-response","143","856632","0.0-10.0-2.56","https://mcdermottlab.mit.edu/mturk_stimuli/bjmedina/mem_exp_atexts_2025/sequences/isi_16/len120/seq064_len120_s15_isi-1p0_0p0_16p0.json","10.780000000000001","true","ospmoysz4bs","","3560","https://mcdermottlab.mit.edu/mturk_stimuli/bjmedina/mem_exp_atexts_2025/mem_stim_30.wav","3","main","","","false","mem_stim_30.wav","false","-1","","1","correct_rejection"
"","","","","","html-keyboard-response","144","856696","0.0-10.0-1.57","https://mcdermottlab.mit.edu/mturk_stimuli/bjmedina/mem_exp_atexts_2025/sequences/isi_16/len120/seq064_len120_s15_isi-1p0_0p0_16p0.json","10.780000000000001","true","ospmoysz4bs","","null","<span style=""font-size: 40px"">+</span>","null","","","","","","","","","",""
"","","","","","audio-button-response","145","859881","0.0-10.0-2.57","https://mcdermottlab.mit.edu/mturk_stimuli/bjmedina/mem_exp_atexts_2025/sequences/isi_16/len120/seq064_len120_s15_isi-1p0_0p0_16p0.json","10.780000000000001","true","ospmoysz4bs","","3179","https://mcdermottlab.mit.edu/mturk_stimuli/bjmedina/mem_exp_atexts_2025/mem_stim_30.wav","3","main","","","true","mem_stim_30.wav","true","0","","0","miss"
"","","","","","html-keyboard-response","146","859940","0.0-10.0-1.58","https://mcdermottlab.mit.edu/mturk_stimuli/bjmedina/mem_exp_atexts_2025/sequences/isi_16/len120/seq064_len120_s15_isi-1p0_0p0_16p0.json","10.780000000000001","true","ospmoysz4bs","","null","<span style=""font-size: 40px"">+</span>","null","","","","","","","","","",""
"","","","","","audio-button-response","147","863541","0.0-10.0-2.58","https://mcdermottlab.mit.edu/mturk_stimuli/bjmedina/mem_exp_atexts_2025/sequences/isi_16/len120/seq064_len120_s15_isi-1p0_0p0_16p0.json","10.780000000000001","true","ospmoysz4bs","","3600","https://mcdermottlab.mit.edu/mturk_stimuli/bjmedina/mem_exp_atexts_2025/mem_stim_51.wav","2","main","","","true","mem_stim_51.wav","false","16","","0","miss"
"","","","","","html-keyboard-response","148","863602","0.0-10.0-1.59","https://mcdermottlab.mit.edu/mturk_stimuli/bjmedina/mem_exp_atexts_2025/sequences/isi_16/len120/seq064_len120_s15_isi-1p0_0p0_16p0.json","10.780000000000001","true","ospmoysz4bs","","null","<span style=""font-size: 40px"">+</span>","null","","","","","","","","","",""
"","","","","","audio-button-response","149","866208","0.0-10.0-2.59","https://mcdermottlab.mit.edu/mturk_stimuli/bjmedina/mem_exp_atexts_2025/sequences/isi_16/len120/seq064_len120_s15_isi-1p0_0p0_16p0.json","10.780000000000001","true","ospmoysz4bs","","2611","https://mcdermottlab.mit.edu/mturk_stimuli/bjmedina/mem_exp_atexts_2025/mem_stim_66.wav","3","main","","","true","mem_stim_66.wav","false","16","","0","miss"
"","","","","","html-keyboard-response","150","866276","0.0-10.0-1.60","https://mcdermottlab.mit.edu/mturk_stimuli/bjmedina/mem_exp_atexts_2025/sequences/isi_16/len120/seq064_len120_s15_isi-1p0_0p0_16p0.json","10.780000000000001","true","ospmoysz4bs","","null","<span style=""font-size: 40px"">+</span>","null","","","","","","","","","",""
"","","","","","audio-button-response","151","868859","0.0-10.0-2.60","https://mcdermottlab.mit.edu/mturk_stimuli/bjmedina/mem_exp_atexts_2025/sequences/isi_16/len120/seq064_len120_s15_isi-1p0_0p0_16p0.json","10.780000000000001","true","ospmoysz4bs","","2592","https://mcdermottlab.mit.edu/mturk_stimuli/bjmedina/mem_exp_atexts_2025/mem_stim_63.wav","2","main","","","true","mem_stim_63.wav","false","16","","0","miss"
"","","","","","html-keyboard-response","152","868925","0.0-10.0-1.61","https://mcdermottlab.mit.edu/mturk_stimuli/bjmedina/mem_exp_atexts_2025/sequences/isi_16/len120/seq064_len120_s15_isi-1p0_0p0_16p0.json","10.780000000000001","true","ospmoysz4bs","","null","<span style=""font-size: 40px"">+</span>","null","","","","","","","","","",""
"","","","","","audio-button-response","153","871168","0.0-10.0-2.61","https://mcdermottlab.mit.edu/mturk_stimuli/bjmedina/mem_exp_atexts_2025/sequences/isi_16/len120/seq064_len120_s15_isi-1p0_0p0_16p0.json","10.780000000000001","true","ospmoysz4bs","","2251","https://mcdermottlab.mit.edu/mturk_stimuli/bjmedina/mem_exp_atexts_2025/mem_stim_54.wav","3","main","","","true","mem_stim_54.wav","false","16","","0","miss"
"","","","","","html-keyboard-response","154","871227","0.0-10.0-1.62","https://mcdermottlab.mit.edu/mturk_stimuli/bjmedina/mem_exp_atexts_2025/sequences/isi_16/len120/seq064_len120_s15_isi-1p0_0p0_16p0.json","10.780000000000001","true","ospmoysz4bs","","null","<span style=""font-size: 40px"">+</span>","null","","","","","","","","","",""
"","","","","","audio-button-response","155","877703","0.0-10.0-2.62","https://mcdermottlab.mit.edu/mturk_stimuli/bjmedina/mem_exp_atexts_2025/sequences/isi_16/len120/seq064_len120_s15_isi-1p0_0p0_16p0.json","10.780000000000001","true","ospmoysz4bs","","5491","https://mcdermottlab.mit.edu/mturk_stimuli/bjmedina/mem_exp_atexts_2025/mem_stim_14.wav","0","main","","","false","mem_stim_14.wav","false","-1","","1","correct_rejection"
"","","","","","html-keyboard-response","156","877761","0.0-10.0-1.63","https://mcdermottlab.mit.edu/mturk_stimuli/bjmedina/mem_exp_atexts_2025/sequences/isi_16/len120/seq064_len120_s15_isi-1p0_0p0_16p0.json","10.780000000000001","true","ospmoysz4bs","","null","<span style=""font-size: 40px"">+</span>","null","","","","","","","","","",""
"","","","","","audio-button-response","157","883183","0.0-10.0-2.63","https://mcdermottlab.mit.edu/mturk_stimuli/bjmedina/mem_exp_atexts_2025/sequences/isi_16/len120/seq064_len120_s15_isi-1p0_0p0_16p0.json","10.780000000000001","true","ospmoysz4bs","","4392","https://mcdermottlab.mit.edu/mturk_stimuli/bjmedina/mem_exp_atexts_2025/mem_stim_33.wav","0","main","","","false","mem_stim_33.wav","false","-1","","1","correct_rejection"
"","","","","","html-keyboard-response","158","883251","0.0-10.0-1.64","https://mcdermottlab.mit.edu/mturk_stimuli/bjmedina/mem_exp_atexts_2025/sequences/isi_16/len120/seq064_len120_s15_isi-1p0_0p0_16p0.json","10.780000000000001","true","ospmoysz4bs","","null","<span style=""font-size: 40px"">+</span>","null","","","","","","","","","",""
"","","","","","audio-button-response","159","886845","0.0-10.0-2.64","https://mcdermottlab.mit.edu/mturk_stimuli/bjmedina/mem_exp_atexts_2025/sequences/isi_16/len120/seq064_len120_s15_isi-1p0_0p0_16p0.json","10.780000000000001","true","ospmoysz4bs","","3589","https://mcdermottlab.mit.edu/mturk_stimuli/bjmedina/mem_exp_atexts_2025/mem_stim_33.wav","3","main","","","true","mem_stim_33.wav","true","0","","0","miss"
"","","","","","html-keyboard-response","160","886903","0.0-10.0-1.65","https://mcdermottlab.mit.edu/mturk_stimuli/bjmedina/mem_exp_atexts_2025/sequences/isi_16/len120/seq064_len120_s15_isi-1p0_0p0_16p0.json","10.780000000000001","true","ospmoysz4bs","","null","<span style=""font-size: 40px"">+</span>","null","","","","","","","","","",""
"","","","","","audio-button-response","161","894387","0.0-10.0-2.65","https://mcdermottlab.mit.edu/mturk_stimuli/bjmedina/mem_exp_atexts_2025/sequences/isi_16/len120/seq064_len120_s15_isi-1p0_0p0_16p0.json","10.780000000000001","true","ospmoysz4bs","","6491","https://mcdermottlab.mit.edu/mturk_stimuli/bjmedina/mem_exp_atexts_2025/mem_stim_72.wav","1","main","","","false","mem_stim_72.wav","false","-1","","0","false_alarm"
"","","","","","html-keyboard-response","162","894452","0.0-10.0-1.66","https://mcdermottlab.mit.edu/mturk_stimuli/bjmedina/mem_exp_atexts_2025/sequences/isi_16/len120/seq064_len120_s15_isi-1p0_0p0_16p0.json","10.780000000000001","true","ospmoysz4bs","","null","<span style=""font-size: 40px"">+</span>","null","","","","","","","","","",""
"","","","","","audio-button-response","163","900637","0.0-10.0-2.66","https://mcdermottlab.mit.edu/mturk_stimuli/bjmedina/mem_exp_atexts_2025/sequences/isi_16/len120/seq064_len120_s15_isi-1p0_0p0_16p0.json","10.780000000000001","true","ospmoysz4bs","","6179","https://mcdermottlab.mit.edu/mturk_stimuli/bjmedina/mem_exp_atexts_2025/mem_stim_58.wav","1","main","","","true","mem_stim_58.wav","false","16","","1","hit"
"","","","","","html-keyboard-response","164","900704","0.0-10.0-1.67","https://mcdermottlab.mit.edu/mturk_stimuli/bjmedina/mem_exp_atexts_2025/sequences/isi_16/len120/seq064_len120_s15_isi-1p0_0p0_16p0.json","10.780000000000001","true","ospmoysz4bs","","null","<span style=""font-size: 40px"">+</span>","null","","","","","","","","","",""
"","","","","","audio-button-response","165","905302","0.0-10.0-2.67","https://mcdermottlab.mit.edu/mturk_stimuli/bjmedina/mem_exp_atexts_2025/sequences/isi_16/len120/seq064_len120_s15_isi-1p0_0p0_16p0.json","10.780000000000001","true","ospmoysz4bs","","3811","https://mcdermottlab.mit.edu/mturk_stimuli/bjmedina/mem_exp_atexts_2025/mem_stim_38.wav","2","main","","","false","mem_stim_38.wav","false","-1","","1","correct_rejection"
"","","","","","html-keyboard-response","166","905359","0.0-10.0-1.68","https://mcdermottlab.mit.edu/mturk_stimuli/bjmedina/mem_exp_atexts_2025/sequences/isi_16/len120/seq064_len120_s15_isi-1p0_0p0_16p0.json","10.780000000000001","true","ospmoysz4bs","","null","<span style=""font-size: 40px"">+</span>","null","","","","","","","","","",""
"","","","","","audio-button-response","167","909811","0.0-10.0-2.68","https://mcdermottlab.mit.edu/mturk_stimuli/bjmedina/mem_exp_atexts_2025/sequences/isi_16/len120/seq064_len120_s15_isi-1p0_0p0_16p0.json","10.780000000000001","true","ospmoysz4bs","","4451","https://mcdermottlab.mit.edu/mturk_stimuli/bjmedina/mem_exp_atexts_2025/mem_stim_38.wav","3","main","","","true","mem_stim_38.wav","true","0","","0","miss"
"","","","","","html-keyboard-response","168","909865","0.0-10.0-1.69","https://mcdermottlab.mit.edu/mturk_stimuli/bjmedina/mem_exp_atexts_2025/sequences/isi_16/len120/seq064_len120_s15_isi-1p0_0p0_16p0.json","10.780000000000001","true","ospmoysz4bs","","null","<span style=""font-size: 40px"">+</span>","null","","","","","","","","","",""
"","","","","","audio-button-response","169","913205","0.0-10.0-2.69","https://mcdermottlab.mit.edu/mturk_stimuli/bjmedina/mem_exp_atexts_2025/sequences/isi_16/len120/seq064_len120_s15_isi-1p0_0p0_16p0.json","10.780000000000001","true","ospmoysz4bs","","2379","https://mcdermottlab.mit.edu/mturk_stimuli/bjmedina/mem_exp_atexts_2025/mem_stim_62.wav","0","main","","","false","mem_stim_62.wav","false","-1","","1","correct_rejection"
"","","","","","html-keyboard-response","170","913264","0.0-10.0-1.70","https://mcdermottlab.mit.edu/mturk_stimuli/bjmedina/mem_exp_atexts_2025/sequences/isi_16/len120/seq064_len120_s15_isi-1p0_0p0_16p0.json","10.780000000000001","true","ospmoysz4bs","","null","<span style=""font-size: 40px"">+</span>","null","","","","","","","","","",""
"","","","","","audio-button-response","171","916215","0.0-10.0-2.70","https://mcdermottlab.mit.edu/mturk_stimuli/bjmedina/mem_exp_atexts_2025/sequences/isi_16/len120/seq064_len120_s15_isi-1p0_0p0_16p0.json","10.780000000000001","true","ospmoysz4bs","","2261","https://mcdermottlab.mit.edu/mturk_stimuli/bjmedina/mem_exp_atexts_2025/mem_stim_19.wav","1","main","","","false","mem_stim_19.wav","false","-1","","0","false_alarm"
"","","","","","html-keyboard-response","172","916282","0.0-10.0-1.71","https://mcdermottlab.mit.edu/mturk_stimuli/bjmedina/mem_exp_atexts_2025/sequences/isi_16/len120/seq064_len120_s15_isi-1p0_0p0_16p0.json","10.780000000000001","true","ospmoysz4bs","","null","<span style=""font-size: 40px"">+</span>","null","","","","","","","","","",""
"","","","","","audio-button-response","173","921041","0.0-10.0-2.71","https://mcdermottlab.mit.edu/mturk_stimuli/bjmedina/mem_exp_atexts_2025/sequences/isi_16/len120/seq064_len120_s15_isi-1p0_0p0_16p0.json","10.780000000000001","true","ospmoysz4bs","","3899","https://mcdermottlab.mit.edu/mturk_stimuli/bjmedina/mem_exp_atexts_2025/mem_stim_50.wav","0","main","","","false","mem_stim_50.wav","false","-1","","1","correct_rejection"
"","","","","","html-keyboard-response","174","921103","0.0-10.0-1.72","https://mcdermottlab.mit.edu/mturk_stimuli/bjmedina/mem_exp_atexts_2025/sequences/isi_16/len120/seq064_len120_s15_isi-1p0_0p0_16p0.json","10.780000000000001","true","ospmoysz4bs","","null","<span style=""font-size: 40px"">+</span>","null","","","","","","","","","",""
"","","","","","audio-button-response","175","925172","0.0-10.0-2.72","https://mcdermottlab.mit.edu/mturk_stimuli/bjmedina/mem_exp_atexts_2025/sequences/isi_16/len120/seq064_len120_s15_isi-1p0_0p0_16p0.json","10.780000000000001","true","ospmoysz4bs","","3461","https://mcdermottlab.mit.edu/mturk_stimuli/bjmedina/mem_exp_atexts_2025/mem_stim_67.wav","1","main","","","false","mem_stim_67.wav","false","-1","","0","false_alarm"
"","","","","","html-keyboard-response","176","925235","0.0-10.0-1.73","https://mcdermottlab.mit.edu/mturk_stimuli/bjmedina/mem_exp_atexts_2025/sequences/isi_16/len120/seq064_len120_s15_isi-1p0_0p0_16p0.json","10.780000000000001","true","ospmoysz4bs","","null","<span style=""font-size: 40px"">+</span>","null","","","","","","","","","",""
"","","","","","audio-button-response","177","929219","0.0-10.0-2.73","https://mcdermottlab.mit.edu/mturk_stimuli/bjmedina/mem_exp_atexts_2025/sequences/isi_16/len120/seq064_len120_s15_isi-1p0_0p0_16p0.json","10.780000000000001","true","ospmoysz4bs","","3371","https://mcdermottlab.mit.edu/mturk_stimuli/bjmedina/mem_exp_atexts_2025/mem_stim_45.wav","1","main","","","false","mem_stim_45.wav","false","-1","","0","false_alarm"
"","","","","","html-keyboard-response","178","929275","0.0-10.0-1.74","https://mcdermottlab.mit.edu/mturk_stimuli/bjmedina/mem_exp_atexts_2025/sequences/isi_16/len120/seq064_len120_s15_isi-1p0_0p0_16p0.json","10.780000000000001","true","ospmoysz4bs","","null","<span style=""font-size: 40px"">+</span>","null","","","","","","","","","",""
"","","","","","audio-button-response","179","932720","0.0-10.0-2.74","https://mcdermottlab.mit.edu/mturk_stimuli/bjmedina/mem_exp_atexts_2025/sequences/isi_16/len120/seq064_len120_s15_isi-1p0_0p0_16p0.json","10.780000000000001","true","ospmoysz4bs","","2840","https://mcdermottlab.mit.edu/mturk_stimuli/bjmedina/mem_exp_atexts_2025/mem_stim_4.wav","1","main","","","false","mem_stim_4.wav","false","-1","","0","false_alarm"
"","","","","","html-keyboard-response","180","932779","0.0-10.0-1.75","https://mcdermottlab.mit.edu/mturk_stimuli/bjmedina/mem_exp_atexts_2025/sequences/isi_16/len120/seq064_len120_s15_isi-1p0_0p0_16p0.json","10.780000000000001","true","ospmoysz4bs","","null","<span style=""font-size: 40px"">+</span>","null","","","","","","","","","",""
"","","","","","audio-button-response","181","935433","0.0-10.0-2.75","https://mcdermottlab.mit.edu/mturk_stimuli/bjmedina/mem_exp_atexts_2025/sequences/isi_16/len120/seq064_len120_s15_isi-1p0_0p0_16p0.json","10.780000000000001","true","ospmoysz4bs","","2048","https://mcdermottlab.mit.edu/mturk_stimuli/bjmedina/mem_exp_atexts_2025/mem_stim_37.wav","0","main","","","false","mem_stim_37.wav","false","-1","","1","correct_rejection"
"","","","","","html-keyboard-response","182","935495","0.0-10.0-1.76","https://mcdermottlab.mit.edu/mturk_stimuli/bjmedina/mem_exp_atexts_2025/sequences/isi_16/len120/seq064_len120_s15_isi-1p0_0p0_16p0.json","10.780000000000001","true","ospmoysz4bs","","null","<span style=""font-size: 40px"">+</span>","null","","","","","","","","","",""
"","","","","","audio-button-response","183","938063","0.0-10.0-2.76","https://mcdermottlab.mit.edu/mturk_stimuli/bjmedina/mem_exp_atexts_2025/sequences/isi_16/len120/seq064_len120_s15_isi-1p0_0p0_16p0.json","10.780000000000001","true","ospmoysz4bs","","2571","https://mcdermottlab.mit.edu/mturk_stimuli/bjmedina/mem_exp_atexts_2025/mem_stim_37.wav","3","main","","","true","mem_stim_37.wav","true","0","","0","miss"
"","","","","","html-keyboard-response","184","938129","0.0-10.0-1.77","https://mcdermottlab.mit.edu/mturk_stimuli/bjmedina/mem_exp_atexts_2025/sequences/isi_16/len120/seq064_len120_s15_isi-1p0_0p0_16p0.json","10.780000000000001","true","ospmoysz4bs","","null","<span style=""font-size: 40px"">+</span>","null","","","","","","","","","",""
"","","","","","audio-button-response","185","942137","0.0-10.0-2.77","https://mcdermottlab.mit.edu/mturk_stimuli/bjmedina/mem_exp_atexts_2025/sequences/isi_16/len120/seq064_len120_s15_isi-1p0_0p0_16p0.json","10.780000000000001","true","ospmoysz4bs","","3469","https://mcdermottlab.mit.edu/mturk_stimuli/bjmedina/mem_exp_atexts_2025/mem_stim_34.wav","1","main","","","false","mem_stim_34.wav","false","-1","","0","false_alarm"
"","","","","","html-keyboard-response","186","942195","0.0-10.0-1.78","https://mcdermottlab.mit.edu/mturk_stimuli/bjmedina/mem_exp_atexts_2025/sequences/isi_16/len120/seq064_len120_s15_isi-1p0_0p0_16p0.json","10.780000000000001","true","ospmoysz4bs","","null","<span style=""font-size: 40px"">+</span>","null","","","","","","","","","",""
"","","","","","audio-button-response","187","945452","0.0-10.0-2.78","https://mcdermottlab.mit.edu/mturk_stimuli/bjmedina/mem_exp_atexts_2025/sequences/isi_16/len120/seq064_len120_s15_isi-1p0_0p0_16p0.json","10.780000000000001","true","ospmoysz4bs","","3261","https://mcdermottlab.mit.edu/mturk_stimuli/bjmedina/mem_exp_atexts_2025/mem_stim_34.wav","3","main","","","true","mem_stim_34.wav","true","0","","0","miss"
"","","","","","html-keyboard-response","188","945517","0.0-10.0-1.79","https://mcdermottlab.mit.edu/mturk_stimuli/bjmedina/mem_exp_atexts_2025/sequences/isi_16/len120/seq064_len120_s15_isi-1p0_0p0_16p0.json","10.780000000000001","true","ospmoysz4bs","","null","<span style=""font-size: 40px"">+</span>","null","","","","","","","","","",""
"","","","","","audio-button-response","189","949079","0.0-10.0-2.79","https://mcdermottlab.mit.edu/mturk_stimuli/bjmedina/mem_exp_atexts_2025/sequences/isi_16/len120/seq064_len120_s15_isi-1p0_0p0_16p0.json","10.780000000000001","true","ospmoysz4bs","","2611","https://mcdermottlab.mit.edu/mturk_stimuli/bjmedina/mem_exp_atexts_2025/mem_stim_42.wav","0","main","","","false","mem_stim_42.wav","false","-1","","1","correct_rejection"
"","","","","","html-keyboard-response","190","949143","0.0-10.0-1.80","https://mcdermottlab.mit.edu/mturk_stimuli/bjmedina/mem_exp_atexts_2025/sequences/isi_16/len120/seq064_len120_s15_isi-1p0_0p0_16p0.json","10.780000000000001","true","ospmoysz4bs","","null","<span style=""font-size: 40px"">+</span>","null","","","","","","","","","",""
"","","","","","audio-button-response","191","952810","0.0-10.0-2.80","https://mcdermottlab.mit.edu/mturk_stimuli/bjmedina/mem_exp_atexts_2025/sequences/isi_16/len120/seq064_len120_s15_isi-1p0_0p0_16p0.json","10.780000000000001","true","ospmoysz4bs","","2581","https://mcdermottlab.mit.edu/mturk_stimuli/bjmedina/mem_exp_atexts_2025/mem_stim_77.wav","2","main","","","false","mem_stim_77.wav","false","-1","","1","correct_rejection"
"","","","","","html-keyboard-response","192","952876","0.0-10.0-1.81","https://mcdermottlab.mit.edu/mturk_stimuli/bjmedina/mem_exp_atexts_2025/sequences/isi_16/len120/seq064_len120_s15_isi-1p0_0p0_16p0.json","10.780000000000001","true","ospmoysz4bs","","null","<span style=""font-size: 40px"">+</span>","null","","","","","","","","","",""
"","","","","","audio-button-response","193","956560","0.0-10.0-2.81","https://mcdermottlab.mit.edu/mturk_stimuli/bjmedina/mem_exp_atexts_2025/sequences/isi_16/len120/seq064_len120_s15_isi-1p0_0p0_16p0.json","10.780000000000001","true","ospmoysz4bs","","2640","https://mcdermottlab.mit.edu/mturk_stimuli/bjmedina/mem_exp_atexts_2025/mem_stim_48.wav","2","main","","","false","mem_stim_48.wav","false","-1","","1","correct_rejection"
"","","","","","html-keyboard-response","194","956626","0.0-10.0-1.82","https://mcdermottlab.mit.edu/mturk_stimuli/bjmedina/mem_exp_atexts_2025/sequences/isi_16/len120/seq064_len120_s15_isi-1p0_0p0_16p0.json","10.780000000000001","true","ospmoysz4bs","","null","<span style=""font-size: 40px"">+</span>","null","","","","","","","","","",""
"","","","","","audio-button-response","195","961497","0.0-10.0-2.82","https://mcdermottlab.mit.edu/mturk_stimuli/bjmedina/mem_exp_atexts_2025/sequences/isi_16/len120/seq064_len120_s15_isi-1p0_0p0_16p0.json","10.780000000000001","true","ospmoysz4bs","","3909","https://mcdermottlab.mit.edu/mturk_stimuli/bjmedina/mem_exp_atexts_2025/mem_stim_23.wav","0","main","","","false","mem_stim_23.wav","false","-1","","1","correct_rejection"
"","","","","","html-keyboard-response","196","961553","0.0-10.0-1.83","https://mcdermottlab.mit.edu/mturk_stimuli/bjmedina/mem_exp_atexts_2025/sequences/isi_16/len120/seq064_len120_s15_isi-1p0_0p0_16p0.json","10.780000000000001","true","ospmoysz4bs","","null","<span style=""font-size: 40px"">+</span>","null","","","","","","","","","",""
"","","","","","audio-button-response","197","967397","0.0-10.0-2.83","https://mcdermottlab.mit.edu/mturk_stimuli/bjmedina/mem_exp_atexts_2025/sequences/isi_16/len120/seq064_len120_s15_isi-1p0_0p0_16p0.json","10.780000000000001","true","ospmoysz4bs","","4800","https://mcdermottlab.mit.edu/mturk_stimuli/bjmedina/mem_exp_atexts_2025/mem_stim_46.wav","2","main","","","false","mem_stim_46.wav","false","-1","","1","correct_rejection"
"","","","","","html-keyboard-response","198","967454","0.0-10.0-1.84","https://mcdermottlab.mit.edu/mturk_stimuli/bjmedina/mem_exp_atexts_2025/sequences/isi_16/len120/seq064_len120_s15_isi-1p0_0p0_16p0.json","10.780000000000001","true","ospmoysz4bs","","null","<span style=""font-size: 40px"">+</span>","null","","","","","","","","","",""
"","","","","","audio-button-response","199","970981","0.0-10.0-2.84","https://mcdermottlab.mit.edu/mturk_stimuli/bjmedina/mem_exp_atexts_2025/sequences/isi_16/len120/seq064_len120_s15_isi-1p0_0p0_16p0.json","10.780000000000001","true","ospmoysz4bs","","2571","https://mcdermottlab.mit.edu/mturk_stimuli/bjmedina/mem_exp_atexts_2025/mem_stim_27.wav","0","main","","","false","mem_stim_27.wav","false","-1","","1","correct_rejection"
"","","","","","html-keyboard-response","200","971046","0.0-10.0-1.85","https://mcdermottlab.mit.edu/mturk_stimuli/bjmedina/mem_exp_atexts_2025/sequences/isi_16/len120/seq064_len120_s15_isi-1p0_0p0_16p0.json","10.780000000000001","true","ospmoysz4bs","","null","<span style=""font-size: 40px"">+</span>","null","","","","","","","","","",""
"","","","","","audio-button-response","201","974644","0.0-10.0-2.85","https://mcdermottlab.mit.edu/mturk_stimuli/bjmedina/mem_exp_atexts_2025/sequences/isi_16/len120/seq064_len120_s15_isi-1p0_0p0_16p0.json","10.780000000000001","true","ospmoysz4bs","","2811","https://mcdermottlab.mit.edu/mturk_stimuli/bjmedina/mem_exp_atexts_2025/mem_stim_52.wav","1","main","","","false","mem_stim_52.wav","false","-1","","0","false_alarm"
"","","","","","html-keyboard-response","202","974706","0.0-10.0-1.86","https://mcdermottlab.mit.edu/mturk_stimuli/bjmedina/mem_exp_atexts_2025/sequences/isi_16/len120/seq064_len120_s15_isi-1p0_0p0_16p0.json","10.780000000000001","true","ospmoysz4bs","","null","<span style=""font-size: 40px"">+</span>","null","","","","","","","","","",""
"","","","","","audio-button-response","203","977333","0.0-10.0-2.86","https://mcdermottlab.mit.edu/mturk_stimuli/bjmedina/mem_exp_atexts_2025/sequences/isi_16/len120/seq064_len120_s15_isi-1p0_0p0_16p0.json","10.780000000000001","true","ospmoysz4bs","","2629","https://mcdermottlab.mit.edu/mturk_stimuli/bjmedina/mem_exp_atexts_2025/mem_stim_62.wav","1","main","","","true","mem_stim_62.wav","false","16","","1","hit"
"","","","","","html-keyboard-response","204","977390","0.0-10.0-1.87","https://mcdermottlab.mit.edu/mturk_stimuli/bjmedina/mem_exp_atexts_2025/sequences/isi_16/len120/seq064_len120_s15_isi-1p0_0p0_16p0.json","10.780000000000001","true","ospmoysz4bs","","null","<span style=""font-size: 40px"">+</span>","null","","","","","","","","","",""
"","","","","","audio-button-response","205","980942","0.0-10.0-2.87","https://mcdermottlab.mit.edu/mturk_stimuli/bjmedina/mem_exp_atexts_2025/sequences/isi_16/len120/seq064_len120_s15_isi-1p0_0p0_16p0.json","10.780000000000001","true","ospmoysz4bs","","2512","https://mcdermottlab.mit.edu/mturk_stimuli/bjmedina/mem_exp_atexts_2025/mem_stim_56.wav","2","main","","","false","mem_stim_56.wav","false","-1","","1","correct_rejection"
"","","","","","html-keyboard-response","206","980998","0.0-10.0-1.88","https://mcdermottlab.mit.edu/mturk_stimuli/bjmedina/mem_exp_atexts_2025/sequences/isi_16/len120/seq064_len120_s15_isi-1p0_0p0_16p0.json","10.780000000000001","true","ospmoysz4bs","","null","<span style=""font-size: 40px"">+</span>","null","","","","","","","","","",""
"","","","","","audio-button-response","207","986467","0.0-10.0-2.88","https://mcdermottlab.mit.edu/mturk_stimuli/bjmedina/mem_exp_atexts_2025/sequences/isi_16/len120/seq064_len120_s15_isi-1p0_0p0_16p0.json","10.780000000000001","true","ospmoysz4bs","","5461","https://mcdermottlab.mit.edu/mturk_stimuli/bjmedina/mem_exp_atexts_2025/mem_stim_50.wav","2","main","","","true","mem_stim_50.wav","false","16","","0","miss"
"","","","","","html-keyboard-response","208","986531","0.0-10.0-1.89","https://mcdermottlab.mit.edu/mturk_stimuli/bjmedina/mem_exp_atexts_2025/sequences/isi_16/len120/seq064_len120_s15_isi-1p0_0p0_16p0.json","10.780000000000001","true","ospmoysz4bs","","null","<span style=""font-size: 40px"">+</span>","null","","","","","","","","","",""
"","","","","","audio-button-response","209","992130","0.0-10.0-2.89","https://mcdermottlab.mit.edu/mturk_stimuli/bjmedina/mem_exp_atexts_2025/sequences/isi_16/len120/seq064_len120_s15_isi-1p0_0p0_16p0.json","10.780000000000001","true","ospmoysz4bs","","5600","https://mcdermottlab.mit.edu/mturk_stimuli/bjmedina/mem_exp_atexts_2025/mem_stim_67.wav","1","main","","","true","mem_stim_67.wav","false","16","","1","hit"
"","","","","","html-keyboard-response","210","992187","0.0-10.0-1.90","https://mcdermottlab.mit.edu/mturk_stimuli/bjmedina/mem_exp_atexts_2025/sequences/isi_16/len120/seq064_len120_s15_isi-1p0_0p0_16p0.json","10.780000000000001","true","ospmoysz4bs","","null","<span style=""font-size: 40px"">+</span>","null","","","","","","","","","",""
"","","","","","audio-button-response","211","994624","0.0-10.0-2.90","https://mcdermottlab.mit.edu/mturk_stimuli/bjmedina/mem_exp_atexts_2025/sequences/isi_16/len120/seq064_len120_s15_isi-1p0_0p0_16p0.json","10.780000000000001","true","ospmoysz4bs","","2432","https://mcdermottlab.mit.edu/mturk_stimuli/bjmedina/mem_exp_atexts_2025/mem_stim_45.wav","3","main","","","true","mem_stim_45.wav","false","16","","0","miss"
"","","","","","html-keyboard-response","212","994684","0.0-10.0-1.91","https://mcdermottlab.mit.edu/mturk_stimuli/bjmedina/mem_exp_atexts_2025/sequences/isi_16/len120/seq064_len120_s15_isi-1p0_0p0_16p0.json","10.780000000000001","true","ospmoysz4bs","","null","<span style=""font-size: 40px"">+</span>","null","","","","","","","","","",""
"","","","","","audio-button-response","213","997939","0.0-10.0-2.91","https://mcdermottlab.mit.edu/mturk_stimuli/bjmedina/mem_exp_atexts_2025/sequences/isi_16/len120/seq064_len120_s15_isi-1p0_0p0_16p0.json","10.780000000000001","true","ospmoysz4bs","","2371","https://mcdermottlab.mit.edu/mturk_stimuli/bjmedina/mem_exp_atexts_2025/mem_stim_7.wav","0","main","","","false","mem_stim_7.wav","false","-1","","1","correct_rejection"
"","","","","","html-keyboard-response","214","997997","0.0-10.0-1.92","https://mcdermottlab.mit.edu/mturk_stimuli/bjmedina/mem_exp_atexts_2025/sequences/isi_16/len120/seq064_len120_s15_isi-1p0_0p0_16p0.json","10.780000000000001","true","ospmoysz4bs","","null","<span style=""font-size: 40px"">+</span>","null","","","","","","","","","",""
"","","","","","audio-button-response","215","1002869","0.0-10.0-2.92","https://mcdermottlab.mit.edu/mturk_stimuli/bjmedina/mem_exp_atexts_2025/sequences/isi_16/len120/seq064_len120_s15_isi-1p0_0p0_16p0.json","10.780000000000001","true","ospmoysz4bs","","4000","https://mcdermottlab.mit.edu/mturk_stimuli/bjmedina/mem_exp_atexts_2025/mem_stim_79.wav","1","main","","","false","mem_stim_79.wav","false","-1","","0","false_alarm"
"","","","","","html-keyboard-response","216","1002926","0.0-10.0-1.93","https://mcdermottlab.mit.edu/mturk_stimuli/bjmedina/mem_exp_atexts_2025/sequences/isi_16/len120/seq064_len120_s15_isi-1p0_0p0_16p0.json","10.780000000000001","true","ospmoysz4bs","","null","<span style=""font-size: 40px"">+</span>","null","","","","","","","","","",""
"","","","","","audio-button-response","217","1006412","0.0-10.0-2.93","https://mcdermottlab.mit.edu/mturk_stimuli/bjmedina/mem_exp_atexts_2025/sequences/isi_16/len120/seq064_len120_s15_isi-1p0_0p0_16p0.json","10.780000000000001","true","ospmoysz4bs","","2611","https://mcdermottlab.mit.edu/mturk_stimuli/bjmedina/mem_exp_atexts_2025/mem_stim_55.wav","1","main","","","false","mem_stim_55.wav","false","-1","","0","false_alarm"
"","","","","","html-keyboard-response","218","1006481","0.0-10.0-1.94","https://mcdermottlab.mit.edu/mturk_stimuli/bjmedina/mem_exp_atexts_2025/sequences/isi_16/len120/seq064_len120_s15_isi-1p0_0p0_16p0.json","10.780000000000001","true","ospmoysz4bs","","null","<span style=""font-size: 40px"">+</span>","null","","","","","","","","","",""
"","","","","","audio-button-response","219","1009701","0.0-10.0-2.94","https://mcdermottlab.mit.edu/mturk_stimuli/bjmedina/mem_exp_atexts_2025/sequences/isi_16/len120/seq064_len120_s15_isi-1p0_0p0_16p0.json","10.780000000000001","true","ospmoysz4bs","","2600","https://mcdermottlab.mit.edu/mturk_stimuli/bjmedina/mem_exp_atexts_2025/mem_stim_20.wav","2","main","","","false","mem_stim_20.wav","false","-1","","1","correct_rejection"
"","","","","","html-keyboard-response","220","1009765","0.0-10.0-1.95","https://mcdermottlab.mit.edu/mturk_stimuli/bjmedina/mem_exp_atexts_2025/sequences/isi_16/len120/seq064_len120_s15_isi-1p0_0p0_16p0.json","10.780000000000001","true","ospmoysz4bs","","null","<span style=""font-size: 40px"">+</span>","null","","","","","","","","","",""
"","","","","","audio-button-response","221","1013112","0.0-10.0-2.95","https://mcdermottlab.mit.edu/mturk_stimuli/bjmedina/mem_exp_atexts_2025/sequences/isi_16/len120/seq064_len120_s15_isi-1p0_0p0_16p0.json","10.780000000000001","true","ospmoysz4bs","","2560","https://mcdermottlab.mit.edu/mturk_stimuli/bjmedina/mem_exp_atexts_2025/mem_stim_59.wav","3","main","","","false","mem_stim_59.wav","false","-1","","1","correct_rejection"
"","","","","","html-keyboard-response","222","1013179","0.0-10.0-1.96","https://mcdermottlab.mit.edu/mturk_stimuli/bjmedina/mem_exp_atexts_2025/sequences/isi_16/len120/seq064_len120_s15_isi-1p0_0p0_16p0.json","10.780000000000001","true","ospmoysz4bs","","null","<span style=""font-size: 40px"">+</span>","null","","","","","","","","","",""
"","","","","","audio-button-response","223","1015803","0.0-10.0-2.96","https://mcdermottlab.mit.edu/mturk_stimuli/bjmedina/mem_exp_atexts_2025/sequences/isi_16/len120/seq064_len120_s15_isi-1p0_0p0_16p0.json","10.780000000000001","true","ospmoysz4bs","","2619","https://mcdermottlab.mit.edu/mturk_stimuli/bjmedina/mem_exp_atexts_2025/mem_stim_42.wav","3","main","","","true","mem_stim_42.wav","false","16","","0","miss"
"","","","","","html-keyboard-response","224","1015863","0.0-10.0-1.97","https://mcdermottlab.mit.edu/mturk_stimuli/bjmedina/mem_exp_atexts_2025/sequences/isi_16/len120/seq064_len120_s15_isi-1p0_0p0_16p0.json","10.780000000000001","true","ospmoysz4bs","","null","<span style=""font-size: 40px"">+</span>","null","","","","","","","","","",""
"","","","","","audio-button-response","225","1019492","0.0-10.0-2.97","https://mcdermottlab.mit.edu/mturk_stimuli/bjmedina/mem_exp_atexts_2025/sequences/isi_16/len120/seq064_len120_s15_isi-1p0_0p0_16p0.json","10.780000000000001","true","ospmoysz4bs","","2581","https://mcdermottlab.mit.edu/mturk_stimuli/bjmedina/mem_exp_atexts_2025/mem_stim_57.wav","2","main","","","false","mem_stim_57.wav","false","-1","","1","correct_rejection"
"","","","","","html-keyboard-response","226","1019551","0.0-10.0-1.98","https://mcdermottlab.mit.edu/mturk_stimuli/bjmedina/mem_exp_atexts_2025/sequences/isi_16/len120/seq064_len120_s15_isi-1p0_0p0_16p0.json","10.780000000000001","true","ospmoysz4bs","","null","<span style=""font-size: 40px"">+</span>","null","","","","","","","","","",""
"","","","","","audio-button-response","227","1022506","0.0-10.0-2.98","https://mcdermottlab.mit.edu/mturk_stimuli/bjmedina/mem_exp_atexts_2025/sequences/isi_16/len120/seq064_len120_s15_isi-1p0_0p0_16p0.json","10.780000000000001","true","ospmoysz4bs","","2952","https://mcdermottlab.mit.edu/mturk_stimuli/bjmedina/mem_exp_atexts_2025/mem_stim_48.wav","2","main","","","true","mem_stim_48.wav","false","16","","0","miss"
"","","","","","html-keyboard-response","228","1022573","0.0-10.0-1.99","https://mcdermottlab.mit.edu/mturk_stimuli/bjmedina/mem_exp_atexts_2025/sequences/isi_16/len120/seq064_len120_s15_isi-1p0_0p0_16p0.json","10.780000000000001","true","ospmoysz4bs","","null","<span style=""font-size: 40px"">+</span>","null","","","","","","","","","",""
"","","","","","audio-button-response","229","1027015","0.0-10.0-2.99","https://mcdermottlab.mit.edu/mturk_stimuli/bjmedina/mem_exp_atexts_2025/sequences/isi_16/len120/seq064_len120_s15_isi-1p0_0p0_16p0.json","10.780000000000001","true","ospmoysz4bs","","3120","https://mcdermottlab.mit.edu/mturk_stimuli/bjmedina/mem_exp_atexts_2025/mem_stim_26.wav","3","main","","","false","mem_stim_26.wav","false","-1","","1","correct_rejection"
"","","","","","html-keyboard-response","230","1027081","0.0-10.0-1.100","https://mcdermottlab.mit.edu/mturk_stimuli/bjmedina/mem_exp_atexts_2025/sequences/isi_16/len120/seq064_len120_s15_isi-1p0_0p0_16p0.json","10.780000000000001","true","ospmoysz4bs","","null","<span style=""font-size: 40px"">+</span>","null","","","","","","","","","",""
"","","","","","audio-button-response","231","1029570","0.0-10.0-2.100","https://mcdermottlab.mit.edu/mturk_stimuli/bjmedina/mem_exp_atexts_2025/sequences/isi_16/len120/seq064_len120_s15_isi-1p0_0p0_16p0.json","10.780000000000001","true","ospmoysz4bs","","2491","https://mcdermottlab.mit.edu/mturk_stimuli/bjmedina/mem_exp_atexts_2025/mem_stim_46.wav","2","main","","","true","mem_stim_46.wav","false","16","","0","miss"
"","","","","","html-keyboard-response","232","1029627","0.0-10.0-1.101","https://mcdermottlab.mit.edu/mturk_stimuli/bjmedina/mem_exp_atexts_2025/sequences/isi_16/len120/seq064_len120_s15_isi-1p0_0p0_16p0.json","10.780000000000001","true","ospmoysz4bs","","null","<span style=""font-size: 40px"">+</span>","null","","","","","","","","","",""
"","","","","","audio-button-response","233","1032801","0.0-10.0-2.101","https://mcdermottlab.mit.edu/mturk_stimuli/bjmedina/mem_exp_atexts_2025/sequences/isi_16/len120/seq064_len120_s15_isi-1p0_0p0_16p0.json","10.780000000000001","true","ospmoysz4bs","","2731","https://mcdermottlab.mit.edu/mturk_stimuli/bjmedina/mem_exp_atexts_2025/mem_stim_43.wav","2","main","","","false","mem_stim_43.wav","false","-1","","1","correct_rejection"
"","","","","","html-keyboard-response","234","1032874","0.0-10.0-1.102","https://mcdermottlab.mit.edu/mturk_stimuli/bjmedina/mem_exp_atexts_2025/sequences/isi_16/len120/seq064_len120_s15_isi-1p0_0p0_16p0.json","10.780000000000001","true","ospmoysz4bs","","null","<span style=""font-size: 40px"">+</span>","null","","","","","","","","","",""
"","","","","","audio-button-response","235","1036348","0.0-10.0-2.102","https://mcdermottlab.mit.edu/mturk_stimuli/bjmedina/mem_exp_atexts_2025/sequences/isi_16/len120/seq064_len120_s15_isi-1p0_0p0_16p0.json","10.780000000000001","true","ospmoysz4bs","","3480","https://mcdermottlab.mit.edu/mturk_stimuli/bjmedina/mem_exp_atexts_2025/mem_stim_52.wav","3","main","","","true","mem_stim_52.wav","false","16","","0","miss"
"","","","","","html-keyboard-response","236","1036406","0.0-10.0-1.103","https://mcdermottlab.mit.edu/mturk_stimuli/bjmedina/mem_exp_atexts_2025/sequences/isi_16/len120/seq064_len120_s15_isi-1p0_0p0_16p0.json","10.780000000000001","true","ospmoysz4bs","","null","<span style=""font-size: 40px"">+</span>","null","","","","","","","","","",""
"","","","","","audio-button-response","237","1039887","0.0-10.0-2.103","https://mcdermottlab.mit.edu/mturk_stimuli/bjmedina/mem_exp_atexts_2025/sequences/isi_16/len120/seq064_len120_s15_isi-1p0_0p0_16p0.json","10.780000000000001","true","ospmoysz4bs","","2429","https://mcdermottlab.mit.edu/mturk_stimuli/bjmedina/mem_exp_atexts_2025/mem_stim_25.wav","2","main","","","false","mem_stim_25.wav","false","-1","","1","correct_rejection"
"","","","","","html-keyboard-response","238","1039952","0.0-10.0-1.104","https://mcdermottlab.mit.edu/mturk_stimuli/bjmedina/mem_exp_atexts_2025/sequences/isi_16/len120/seq064_len120_s15_isi-1p0_0p0_16p0.json","10.780000000000001","true","ospmoysz4bs","","null","<span style=""font-size: 40px"">+</span>","null","","","","","","","","","",""
"","","","","","audio-button-response","239","1043160","0.0-10.0-2.104","https://mcdermottlab.mit.edu/mturk_stimuli/bjmedina/mem_exp_atexts_2025/sequences/isi_16/len120/seq064_len120_s15_isi-1p0_0p0_16p0.json","10.780000000000001","true","ospmoysz4bs","","3211","https://mcdermottlab.mit.edu/mturk_stimuli/bjmedina/mem_exp_atexts_2025/mem_stim_56.wav","3","main","","","true","mem_stim_56.wav","false","16","","0","miss"
"","","","","","html-keyboard-response","240","1043226","0.0-10.0-1.105","https://mcdermottlab.mit.edu/mturk_stimuli/bjmedina/mem_exp_atexts_2025/sequences/isi_16/len120/seq064_len120_s15_isi-1p0_0p0_16p0.json","10.780000000000001","true","ospmoysz4bs","","null","<span style=""font-size: 40px"">+</span>","null","","","","","","","","","",""
"","","","","","audio-button-response","241","1046970","0.0-10.0-2.105","https://mcdermottlab.mit.edu/mturk_stimuli/bjmedina/mem_exp_atexts_2025/sequences/isi_16/len120/seq064_len120_s15_isi-1p0_0p0_16p0.json","10.780000000000001","true","ospmoysz4bs","","2691","https://mcdermottlab.mit.edu/mturk_stimuli/bjmedina/mem_exp_atexts_2025/mem_stim_35.wav","3","main","","","false","mem_stim_35.wav","false","-1","","1","correct_rejection"
"","","","","","html-keyboard-response","242","1047036","0.0-10.0-1.106","https://mcdermottlab.mit.edu/mturk_stimuli/bjmedina/mem_exp_atexts_2025/sequences/isi_16/len120/seq064_len120_s15_isi-1p0_0p0_16p0.json","10.780000000000001","true","ospmoysz4bs","","null","<span style=""font-size: 40px"">+</span>","null","","","","","","","","","",""
"","","","","","audio-button-response","243","1049708","0.0-10.0-2.106","https://mcdermottlab.mit.edu/mturk_stimuli/bjmedina/mem_exp_atexts_2025/sequences/isi_16/len120/seq064_len120_s15_isi-1p0_0p0_16p0.json","10.780000000000001","true","ospmoysz4bs","","2680","https://mcdermottlab.mit.edu/mturk_stimuli/bjmedina/mem_exp_atexts_2025/mem_stim_35.wav","3","main","","","true","mem_stim_35.wav","true","0","","0","miss"
"","","","","","html-keyboard-response","244","1049775","0.0-10.0-1.107","https://mcdermottlab.mit.edu/mturk_stimuli/bjmedina/mem_exp_atexts_2025/sequences/isi_16/len120/seq064_len120_s15_isi-1p0_0p0_16p0.json","10.780000000000001","true","ospmoysz4bs","","null","<span style=""font-size: 40px"">+</span>","null","","","","","","","","","",""
"","","","","","audio-button-response","245","1053419","0.0-10.0-2.107","https://mcdermottlab.mit.edu/mturk_stimuli/bjmedina/mem_exp_atexts_2025/sequences/isi_16/len120/seq064_len120_s15_isi-1p0_0p0_16p0.json","10.780000000000001","true","ospmoysz4bs","","2600","https://mcdermottlab.mit.edu/mturk_stimuli/bjmedina/mem_exp_atexts_2025/mem_stim_75.wav","2","main","","","false","mem_stim_75.wav","false","-1","","1","correct_rejection"
"","","","","","html-keyboard-response","246","1053482","0.0-10.0-1.108","https://mcdermottlab.mit.edu/mturk_stimuli/bjmedina/mem_exp_atexts_2025/sequences/isi_16/len120/seq064_len120_s15_isi-1p0_0p0_16p0.json","10.780000000000001","true","ospmoysz4bs","","null","<span style=""font-size: 40px"">+</span>","null","","","","","","","","","",""
"","","","","","audio-button-response","247","1056217","0.0-10.0-2.108","https://mcdermottlab.mit.edu/mturk_stimuli/bjmedina/mem_exp_atexts_2025/sequences/isi_16/len120/seq064_len120_s15_isi-1p0_0p0_16p0.json","10.780000000000001","true","ospmoysz4bs","","2120","https://mcdermottlab.mit.edu/mturk_stimuli/bjmedina/mem_exp_atexts_2025/mem_stim_71.wav","2","main","","","false","mem_stim_71.wav","false","-1","","1","correct_rejection"
"","","","","","html-keyboard-response","248","1056285","0.0-10.0-1.109","https://mcdermottlab.mit.edu/mturk_stimuli/bjmedina/mem_exp_atexts_2025/sequences/isi_16/len120/seq064_len120_s15_isi-1p0_0p0_16p0.json","10.780000000000001","true","ospmoysz4bs","","null","<span style=""font-size: 40px"">+</span>","null","","","","","","","","","",""
"","","","","","audio-button-response","249","1060329","0.0-10.0-2.109","https://mcdermottlab.mit.edu/mturk_stimuli/bjmedina/mem_exp_atexts_2025/sequences/isi_16/len120/seq064_len120_s15_isi-1p0_0p0_16p0.json","10.780000000000001","true","ospmoysz4bs","","3429","https://mcdermottlab.mit.edu/mturk_stimuli/bjmedina/mem_exp_atexts_2025/mem_stim_29.wav","0","main","","","false","mem_stim_29.wav","false","-1","","1","correct_rejection"
"","","","","","html-keyboard-response","250","1060396","0.0-10.0-1.110","https://mcdermottlab.mit.edu/mturk_stimuli/bjmedina/mem_exp_atexts_2025/sequences/isi_16/len120/seq064_len120_s15_isi-1p0_0p0_16p0.json","10.780000000000001","true","ospmoysz4bs","","null","<span style=""font-size: 40px"">+</span>","null","","","","","","","","","",""
"","","","","","audio-button-response","251","1062979","0.0-10.0-2.110","https://mcdermottlab.mit.edu/mturk_stimuli/bjmedina/mem_exp_atexts_2025/sequences/isi_16/len120/seq064_len120_s15_isi-1p0_0p0_16p0.json","10.780000000000001","true","ospmoysz4bs","","2592","https://mcdermottlab.mit.edu/mturk_stimuli/bjmedina/mem_exp_atexts_2025/mem_stim_55.wav","2","main","","","true","mem_stim_55.wav","false","16","","0","miss"
"","","","","","html-keyboard-response","252","1063044","0.0-10.0-1.111","https://mcdermottlab.mit.edu/mturk_stimuli/bjmedina/mem_exp_atexts_2025/sequences/isi_16/len120/seq064_len120_s15_isi-1p0_0p0_16p0.json","10.780000000000001","true","ospmoysz4bs","","null","<span style=""font-size: 40px"">+</span>","null","","","","","","","","","",""
"","","","","","audio-button-response","253","1066660","0.0-10.0-2.111","https://mcdermottlab.mit.edu/mturk_stimuli/bjmedina/mem_exp_atexts_2025/sequences/isi_16/len120/seq064_len120_s15_isi-1p0_0p0_16p0.json","10.780000000000001","true","ospmoysz4bs","","2560","https://mcdermottlab.mit.edu/mturk_stimuli/bjmedina/mem_exp_atexts_2025/mem_stim_78.wav","1","main","","","false","mem_stim_78.wav","false","-1","","0","false_alarm"
"","","","","","html-keyboard-response","254","1066718","0.0-10.0-1.112","https://mcdermottlab.mit.edu/mturk_stimuli/bjmedina/mem_exp_atexts_2025/sequences/isi_16/len120/seq064_len120_s15_isi-1p0_0p0_16p0.json","10.780000000000001","true","ospmoysz4bs","","null","<span style=""font-size: 40px"">+</span>","null","","","","","","","","","",""
"","","","","","audio-button-response","255","1070706","0.0-10.0-2.112","https://mcdermottlab.mit.edu/mturk_stimuli/bjmedina/mem_exp_atexts_2025/sequences/isi_16/len120/seq064_len120_s15_isi-1p0_0p0_16p0.json","10.780000000000001","true","ospmoysz4bs","","3981","https://mcdermottlab.mit.edu/mturk_stimuli/bjmedina/mem_exp_atexts_2025/mem_stim_59.wav","3","main","","","true","mem_stim_59.wav","false","16","","0","miss"
"","","","","","html-keyboard-response","256","1070775","0.0-10.0-1.113","https://mcdermottlab.mit.edu/mturk_stimuli/bjmedina/mem_exp_atexts_2025/sequences/isi_16/len120/seq064_len120_s15_isi-1p0_0p0_16p0.json","10.780000000000001","true","ospmoysz4bs","","null","<span style=""font-size: 40px"">+</span>","null","","","","","","","","","",""
"","","","","","audio-button-response","257","1077075","0.0-10.0-2.113","https://mcdermottlab.mit.edu/mturk_stimuli/bjmedina/mem_exp_atexts_2025/sequences/isi_16/len120/seq064_len120_s15_isi-1p0_0p0_16p0.json","10.780000000000001","true","ospmoysz4bs","","5499","https://mcdermottlab.mit.edu/mturk_stimuli/bjmedina/mem_exp_atexts_2025/mem_stim_6.wav","1","main","","","false","mem_stim_6.wav","false","-1","","0","false_alarm"
"","","","","","html-keyboard-response","258","1077132","0.0-10.0-1.114","https://mcdermottlab.mit.edu/mturk_stimuli/bjmedina/mem_exp_atexts_2025/sequences/isi_16/len120/seq064_len120_s15_isi-1p0_0p0_16p0.json","10.780000000000001","true","ospmoysz4bs","","null","<span style=""font-size: 40px"">+</span>","null","","","","","","","","","",""
"","","","","","audio-button-response","259","1079892","0.0-10.0-2.114","https://mcdermottlab.mit.edu/mturk_stimuli/bjmedina/mem_exp_atexts_2025/sequences/isi_16/len120/seq064_len120_s15_isi-1p0_0p0_16p0.json","10.780000000000001","true","ospmoysz4bs","","2760","https://mcdermottlab.mit.edu/mturk_stimuli/bjmedina/mem_exp_atexts_2025/mem_stim_57.wav","3","main","","","true","mem_stim_57.wav","false","16","","0","miss"
