"success","timeout","failed_images","failed_audio","failed_video","trial_type","trial_index","time_elapsed","internal_node_id","sequence_file","pay","passed_hc","completion_code","view_history","rt","stimulus","response","stim_type","hc_answer","correct_hc","repeat","yt_id","catch","isi","type","is_correct","response_type"
"true","false","[]","[]","[]","preload","0","232","0.0-0.0","https://mcdermottlab.mit.edu/mturk_stimuli/bjmedina/global-music-2025-n_80/sequences/isi_16/len120/seq027_len120_s10_isi-1p0_0p0_16p0.json","10.66","true","9we69n2qx77","","","","","","","","","","","","","",""
"","","","","","instructions","1","24694","0.0-1.0","https://mcdermottlab.mit.edu/mturk_stimuli/bjmedina/global-music-2025-n_80/sequences/isi_16/len120/seq027_len120_s10_isi-1p0_0p0_16p0.json","10.66","true","9we69n2qx77","[{""page_index"":0,""viewing_time"":24459}]","24460","","","","","","","","","","","",""
"","","","","","instructions","2","29714","0.0-2.0","https://mcdermottlab.mit.edu/mturk_stimuli/bjmedina/global-music-2025-n_80/sequences/isi_16/len120/seq027_len120_s10_isi-1p0_0p0_16p0.json","10.66","true","9we69n2qx77","[{""page_index"":0,""viewing_time"":5017}]","5017","","","","","","","","","","","",""
"","","","","","audio-button-response","3","40064","0.0-3.0-0.0","https://mcdermottlab.mit.edu/mturk_stimuli/bjmedina/global-music-2025-n_80/sequences/isi_16/len120/seq027_len120_s10_isi-1p0_0p0_16p0.json","10.66","true","9we69n2qx77","","9600","https://mcdermottlab.mit.edu/bjmedina/experiments/mem_exp_v01/assets/noise_calib_stim.wav","0","","","","","","","","","",""
"","","","","","audio-button-response","4","45200","0.0-3.1-0.1","https://mcdermottlab.mit.edu/mturk_stimuli/bjmedina/global-music-2025-n_80/sequences/isi_16/len120/seq027_len120_s10_isi-1p0_0p0_16p0.json","10.66","true","9we69n2qx77","","5131","https://mcdermottlab.mit.edu/bjmedina/experiments/mem_exp_v01/assets/noise_calib_stim.wav","0","","","","","","","","","",""
"","","","","","audio-button-response","5","48138","0.0-3.2-0.2","https://mcdermottlab.mit.edu/mturk_stimuli/bjmedina/global-music-2025-n_80/sequences/isi_16/len120/seq027_len120_s10_isi-1p0_0p0_16p0.json","10.66","true","9we69n2qx77","","2928","https://mcdermottlab.mit.edu/bjmedina/experiments/mem_exp_v01/assets/noise_calib_stim.wav","0","","","","","","","","","",""
"","","","","","audio-button-response","6","52046","0.0-3.3-0.3","https://mcdermottlab.mit.edu/mturk_stimuli/bjmedina/global-music-2025-n_80/sequences/isi_16/len120/seq027_len120_s10_isi-1p0_0p0_16p0.json","10.66","true","9we69n2qx77","","3877","https://mcdermottlab.mit.edu/bjmedina/experiments/mem_exp_v01/assets/noise_calib_stim.wav","0","","","","","","","","","",""
"","","","","","audio-button-response","7","55384","0.0-3.4-0.4","https://mcdermottlab.mit.edu/mturk_stimuli/bjmedina/global-music-2025-n_80/sequences/isi_16/len120/seq027_len120_s10_isi-1p0_0p0_16p0.json","10.66","true","9we69n2qx77","","3333","https://mcdermottlab.mit.edu/bjmedina/experiments/mem_exp_v01/assets/noise_calib_stim.wav","1","","","","","","","","","",""
"","","","","","instructions","8","63081","0.0-4.0","https://mcdermottlab.mit.edu/mturk_stimuli/bjmedina/global-music-2025-n_80/sequences/isi_16/len120/seq027_len120_s10_isi-1p0_0p0_16p0.json","10.66","true","9we69n2qx77","[{""page_index"":0,""viewing_time"":7694}]","7695","","","","","","","","","","","",""
"","","","","","audio-button-response","9","69146","0.0-5.0-0.0","https://mcdermottlab.mit.edu/mturk_stimuli/bjmedina/global-music-2025-n_80/sequences/isi_16/len120/seq027_len120_s10_isi-1p0_0p0_16p0.json","10.66","true","9we69n2qx77","","4965","https://mcdermottlab.mit.edu/bjmedina/experiments/mem_exp_v01/assets/antiphase_HC_OSI.wav","0","hc","2","0","","","","","","",""
"","","","","","audio-button-response","10","74866","0.0-5.0-0.1","https://mcdermottlab.mit.edu/mturk_stimuli/bjmedina/global-music-2025-n_80/sequences/isi_16/len120/seq027_len120_s10_isi-1p0_0p0_16p0.json","10.66","true","9we69n2qx77","","4869","https://mcdermottlab.mit.edu/bjmedina/experiments/mem_exp_v01/assets/antiphase_HC_IOS.wav","2","hc","3","1","","","","","","",""
"","","","","","audio-button-response","11","80615","0.0-5.0-0.2","https://mcdermottlab.mit.edu/mturk_stimuli/bjmedina/global-music-2025-n_80/sequences/isi_16/len120/seq027_len120_s10_isi-1p0_0p0_16p0.json","10.66","true","9we69n2qx77","","4789","https://mcdermottlab.mit.edu/bjmedina/experiments/mem_exp_v01/assets/antiphase_HC_OIS.wav","2","hc","3","1","","","","","","",""
"","","","","","audio-button-response","12","86186","0.0-5.0-0.3","https://mcdermottlab.mit.edu/mturk_stimuli/bjmedina/global-music-2025-n_80/sequences/isi_16/len120/seq027_len120_s10_isi-1p0_0p0_16p0.json","10.66","true","9we69n2qx77","","4704","https://mcdermottlab.mit.edu/bjmedina/experiments/mem_exp_v01/assets/antiphase_HC_ISO.wav","1","hc","2","1","","","","","","",""
"","","","","","audio-button-response","13","91579","0.0-5.0-0.4","https://mcdermottlab.mit.edu/mturk_stimuli/bjmedina/global-music-2025-n_80/sequences/isi_16/len120/seq027_len120_s10_isi-1p0_0p0_16p0.json","10.66","true","9we69n2qx77","","4667","https://mcdermottlab.mit.edu/bjmedina/experiments/mem_exp_v01/assets/antiphase_HC_SOI.wav","0","hc","1","1","","","","","","",""
"","","","","","audio-button-response","14","96838","0.0-5.0-0.5","https://mcdermottlab.mit.edu/mturk_stimuli/bjmedina/global-music-2025-n_80/sequences/isi_16/len120/seq027_len120_s10_isi-1p0_0p0_16p0.json","10.66","true","9we69n2qx77","","4581","https://mcdermottlab.mit.edu/bjmedina/experiments/mem_exp_v01/assets/antiphase_HC_SIO.wav","0","hc","1","1","","","","","","",""
"","","","","","html-keyboard-response","15","98639","0.0-6.0","https://mcdermottlab.mit.edu/mturk_stimuli/bjmedina/global-music-2025-n_80/sequences/isi_16/len120/seq027_len120_s10_isi-1p0_0p0_16p0.json","10.66","true","9we69n2qx77","","1798","<h1>You have finished the LOUDNESS task!</h1> <p>Press space to continue</p>"," ","","","","","","","","","",""
"","","","","","instructions","16","157419","0.0-7.0","https://mcdermottlab.mit.edu/mturk_stimuli/bjmedina/global-music-2025-n_80/sequences/isi_16/len120/seq027_len120_s10_isi-1p0_0p0_16p0.json","10.66","true","9we69n2qx77","[{""page_index"":0,""viewing_time"":2206},{""page_index"":1,""viewing_time"":37167},{""page_index"":2,""viewing_time"":15685},{""page_index"":3,""viewing_time"":3720}]","58779","","","","","","","","","","","",""
"","","","","","html-keyboard-response","17","157470","0.0-8.0-0.0","https://mcdermottlab.mit.edu/mturk_stimuli/bjmedina/global-music-2025-n_80/sequences/isi_16/len120/seq027_len120_s10_isi-1p0_0p0_16p0.json","10.66","true","9we69n2qx77","","null","<span style=""font-size: 40px"">+</span>","null","fixation","","","","","","","","",""
"","","","","","audio-button-response","18","165213","0.0-8.0-1.0","https://mcdermottlab.mit.edu/mturk_stimuli/bjmedina/global-music-2025-n_80/sequences/isi_16/len120/seq027_len120_s10_isi-1p0_0p0_16p0.json","10.66","true","9we69n2qx77","","6320","https://mcdermottlab.mit.edu/mturk_stimuli/bjmedina/mem_exp_v05/mem_stim_1023_f32.wav","0","demo","","","0","","","","","",""
"","","","","","html-keyboard-response","19","165265","0.0-8.0-0.1","https://mcdermottlab.mit.edu/mturk_stimuli/bjmedina/global-music-2025-n_80/sequences/isi_16/len120/seq027_len120_s10_isi-1p0_0p0_16p0.json","10.66","true","9we69n2qx77","","null","<span style=""font-size: 40px"">+</span>","null","fixation","","","","","","","","",""
"","","","","","audio-button-response","20","168817","0.0-8.0-1.1","https://mcdermottlab.mit.edu/mturk_stimuli/bjmedina/global-music-2025-n_80/sequences/isi_16/len120/seq027_len120_s10_isi-1p0_0p0_16p0.json","10.66","true","9we69n2qx77","","2720","https://mcdermottlab.mit.edu/mturk_stimuli/bjmedina/mem_exp_v05/mem_stim_1022_f32.wav","2","demo","","","0","","","","","",""
"","","","","","html-keyboard-response","21","168870","0.0-8.0-0.2","https://mcdermottlab.mit.edu/mturk_stimuli/bjmedina/global-music-2025-n_80/sequences/isi_16/len120/seq027_len120_s10_isi-1p0_0p0_16p0.json","10.66","true","9we69n2qx77","","null","<span style=""font-size: 40px"">+</span>","null","fixation","","","","","","","","",""
"","","","","","audio-button-response","22","171614","0.0-8.0-1.2","https://mcdermottlab.mit.edu/mturk_stimuli/bjmedina/global-music-2025-n_80/sequences/isi_16/len120/seq027_len120_s10_isi-1p0_0p0_16p0.json","10.66","true","9we69n2qx77","","2741","https://mcdermottlab.mit.edu/mturk_stimuli/bjmedina/mem_exp_v05/mem_stim_1022_f32.wav","2","demo","","","1","","","","","",""
"","","","","","html-keyboard-response","23","171666","0.0-8.0-0.3","https://mcdermottlab.mit.edu/mturk_stimuli/bjmedina/global-music-2025-n_80/sequences/isi_16/len120/seq027_len120_s10_isi-1p0_0p0_16p0.json","10.66","true","9we69n2qx77","","null","<span style=""font-size: 40px"">+</span>","null","fixation","","","","","","","","",""
"","","","","","audio-button-response","24","175934","0.0-8.0-1.3","https://mcdermottlab.mit.edu/mturk_stimuli/bjmedina/global-music-2025-n_80/sequences/isi_16/len120/seq027_len120_s10_isi-1p0_0p0_16p0.json","10.66","true","9we69n2qx77","","3451","https://mcdermottlab.mit.edu/mturk_stimuli/bjmedina/mem_exp_v05/mem_stim_1021_f32.wav","0","demo","","","0","","","","","",""
"","","","","","html-keyboard-response","25","175986","0.0-8.0-0.4","https://mcdermottlab.mit.edu/mturk_stimuli/bjmedina/global-music-2025-n_80/sequences/isi_16/len120/seq027_len120_s10_isi-1p0_0p0_16p0.json","10.66","true","9we69n2qx77","","null","<span style=""font-size: 40px"">+</span>","null","fixation","","","","","","","","",""
"","","","","","audio-button-response","26","178447","0.0-8.0-1.4","https://mcdermottlab.mit.edu/mturk_stimuli/bjmedina/global-music-2025-n_80/sequences/isi_16/len120/seq027_len120_s10_isi-1p0_0p0_16p0.json","10.66","true","9we69n2qx77","","2459","https://mcdermottlab.mit.edu/mturk_stimuli/bjmedina/mem_exp_v05/mem_stim_1023_f32.wav","3","demo","","","1","","","","","",""
"","","","","","html-keyboard-response","27","178500","0.0-8.0-0.5","https://mcdermottlab.mit.edu/mturk_stimuli/bjmedina/global-music-2025-n_80/sequences/isi_16/len120/seq027_len120_s10_isi-1p0_0p0_16p0.json","10.66","true","9we69n2qx77","","null","<span style=""font-size: 40px"">+</span>","null","fixation","","","","","","","","",""
"","","","","","audio-button-response","28","181749","0.0-8.0-1.5","https://mcdermottlab.mit.edu/mturk_stimuli/bjmedina/global-music-2025-n_80/sequences/isi_16/len120/seq027_len120_s10_isi-1p0_0p0_16p0.json","10.66","true","9we69n2qx77","","2704","https://mcdermottlab.mit.edu/mturk_stimuli/bjmedina/mem_exp_v05/mem_stim_1020_f32.wav","0","demo","","","0","","","","","",""
"","","","","","html-keyboard-response","29","181801","0.0-8.0-0.6","https://mcdermottlab.mit.edu/mturk_stimuli/bjmedina/global-music-2025-n_80/sequences/isi_16/len120/seq027_len120_s10_isi-1p0_0p0_16p0.json","10.66","true","9we69n2qx77","","null","<span style=""font-size: 40px"">+</span>","null","fixation","","","","","","","","",""
"","","","","","audio-button-response","30","185981","0.0-8.0-1.6","https://mcdermottlab.mit.edu/mturk_stimuli/bjmedina/global-music-2025-n_80/sequences/isi_16/len120/seq027_len120_s10_isi-1p0_0p0_16p0.json","10.66","true","9we69n2qx77","","2411","https://mcdermottlab.mit.edu/mturk_stimuli/bjmedina/mem_exp_v05/mem_stim_1019_f32.wav","0","demo","","","0","","","","","",""
"","","","","","html-keyboard-response","31","186033","0.0-8.0-0.7","https://mcdermottlab.mit.edu/mturk_stimuli/bjmedina/global-music-2025-n_80/sequences/isi_16/len120/seq027_len120_s10_isi-1p0_0p0_16p0.json","10.66","true","9we69n2qx77","","null","<span style=""font-size: 40px"">+</span>","null","fixation","","","","","","","","",""
"","","","","","audio-button-response","32","189101","0.0-8.0-1.7","https://mcdermottlab.mit.edu/mturk_stimuli/bjmedina/global-music-2025-n_80/sequences/isi_16/len120/seq027_len120_s10_isi-1p0_0p0_16p0.json","10.66","true","9we69n2qx77","","3067","https://mcdermottlab.mit.edu/mturk_stimuli/bjmedina/mem_exp_v05/mem_stim_1021_f32.wav","2","demo","","","1","","","","","",""
"","","","","","html-keyboard-response","33","212728","0.0-9.0","https://mcdermottlab.mit.edu/mturk_stimuli/bjmedina/global-music-2025-n_80/sequences/isi_16/len120/seq027_len120_s10_isi-1p0_0p0_16p0.json","10.66","true","9we69n2qx77","","23625","<p>You are now ready to start the experiment. Press SPACE when you are ready to start.</p>"," ","","","","","","","","","",""
"","","","","","html-keyboard-response","34","212780","0.0-10.0-1.0","https://mcdermottlab.mit.edu/mturk_stimuli/bjmedina/global-music-2025-n_80/sequences/isi_16/len120/seq027_len120_s10_isi-1p0_0p0_16p0.json","10.66","true","9we69n2qx77","","null","<span style=""font-size: 40px"">+</span>","null","","","","","","","","","",""
"","","","","","audio-button-response","35","216048","0.0-10.0-2.0","https://mcdermottlab.mit.edu/mturk_stimuli/bjmedina/global-music-2025-n_80/sequences/isi_16/len120/seq027_len120_s10_isi-1p0_0p0_16p0.json","10.66","true","9we69n2qx77","","2779","https://mcdermottlab.mit.edu/mturk_stimuli/bjmedina/global-music-2025-n_80/mem_stim_35.wav","0","main","","","false","mem_stim_35.wav","false","-1","","1","correct_rejection"
"","","","","","html-keyboard-response","36","216107","0.0-10.0-1.1","https://mcdermottlab.mit.edu/mturk_stimuli/bjmedina/global-music-2025-n_80/sequences/isi_16/len120/seq027_len120_s10_isi-1p0_0p0_16p0.json","10.66","true","9we69n2qx77","","null","<span style=""font-size: 40px"">+</span>","null","","","","","","","","","",""
"","","","","","audio-button-response","37","219331","0.0-10.0-2.1","https://mcdermottlab.mit.edu/mturk_stimuli/bjmedina/global-music-2025-n_80/sequences/isi_16/len120/seq027_len120_s10_isi-1p0_0p0_16p0.json","10.66","true","9we69n2qx77","","2811","https://mcdermottlab.mit.edu/mturk_stimuli/bjmedina/global-music-2025-n_80/mem_stim_27.wav","0","main","","","false","mem_stim_27.wav","false","-1","","1","correct_rejection"
"","","","","","html-keyboard-response","38","219390","0.0-10.0-1.2","https://mcdermottlab.mit.edu/mturk_stimuli/bjmedina/global-music-2025-n_80/sequences/isi_16/len120/seq027_len120_s10_isi-1p0_0p0_16p0.json","10.66","true","9we69n2qx77","","null","<span style=""font-size: 40px"">+</span>","null","","","","","","","","","",""
"","","","","","audio-button-response","39","223033","0.0-10.0-2.2","https://mcdermottlab.mit.edu/mturk_stimuli/bjmedina/global-music-2025-n_80/sequences/isi_16/len120/seq027_len120_s10_isi-1p0_0p0_16p0.json","10.66","true","9we69n2qx77","","3211","https://mcdermottlab.mit.edu/mturk_stimuli/bjmedina/global-music-2025-n_80/mem_stim_36.wav","0","main","","","false","mem_stim_36.wav","false","-1","","1","correct_rejection"
"","","","","","html-keyboard-response","40","223087","0.0-10.0-1.3","https://mcdermottlab.mit.edu/mturk_stimuli/bjmedina/global-music-2025-n_80/sequences/isi_16/len120/seq027_len120_s10_isi-1p0_0p0_16p0.json","10.66","true","9we69n2qx77","","null","<span style=""font-size: 40px"">+</span>","null","","","","","","","","","",""
"","","","","","audio-button-response","41","226314","0.0-10.0-2.3","https://mcdermottlab.mit.edu/mturk_stimuli/bjmedina/global-music-2025-n_80/sequences/isi_16/len120/seq027_len120_s10_isi-1p0_0p0_16p0.json","10.66","true","9we69n2qx77","","2715","https://mcdermottlab.mit.edu/mturk_stimuli/bjmedina/global-music-2025-n_80/mem_stim_7.wav","0","main","","","false","mem_stim_7.wav","false","-1","","1","correct_rejection"
"","","","","","html-keyboard-response","42","226368","0.0-10.0-1.4","https://mcdermottlab.mit.edu/mturk_stimuli/bjmedina/global-music-2025-n_80/sequences/isi_16/len120/seq027_len120_s10_isi-1p0_0p0_16p0.json","10.66","true","9we69n2qx77","","null","<span style=""font-size: 40px"">+</span>","null","","","","","","","","","",""
"","","","","","audio-button-response","43","230631","0.0-10.0-2.4","https://mcdermottlab.mit.edu/mturk_stimuli/bjmedina/global-music-2025-n_80/sequences/isi_16/len120/seq027_len120_s10_isi-1p0_0p0_16p0.json","10.66","true","9we69n2qx77","","3520","https://mcdermottlab.mit.edu/mturk_stimuli/bjmedina/global-music-2025-n_80/mem_stim_28.wav","0","main","","","false","mem_stim_28.wav","false","-1","","1","correct_rejection"
"","","","","","html-keyboard-response","44","230689","0.0-10.0-1.5","https://mcdermottlab.mit.edu/mturk_stimuli/bjmedina/global-music-2025-n_80/sequences/isi_16/len120/seq027_len120_s10_isi-1p0_0p0_16p0.json","10.66","true","9we69n2qx77","","null","<span style=""font-size: 40px"">+</span>","null","","","","","","","","","",""
"","","","","","audio-button-response","45","234767","0.0-10.0-2.5","https://mcdermottlab.mit.edu/mturk_stimuli/bjmedina/global-music-2025-n_80/sequences/isi_16/len120/seq027_len120_s10_isi-1p0_0p0_16p0.json","10.66","true","9we69n2qx77","","3664","https://mcdermottlab.mit.edu/mturk_stimuli/bjmedina/global-music-2025-n_80/mem_stim_39.wav","0","main","","","false","mem_stim_39.wav","false","-1","","1","correct_rejection"
"","","","","","html-keyboard-response","46","234821","0.0-10.0-1.6","https://mcdermottlab.mit.edu/mturk_stimuli/bjmedina/global-music-2025-n_80/sequences/isi_16/len120/seq027_len120_s10_isi-1p0_0p0_16p0.json","10.66","true","9we69n2qx77","","null","<span style=""font-size: 40px"">+</span>","null","","","","","","","","","",""
"","","","","","audio-button-response","47","237949","0.0-10.0-2.6","https://mcdermottlab.mit.edu/mturk_stimuli/bjmedina/global-music-2025-n_80/sequences/isi_16/len120/seq027_len120_s10_isi-1p0_0p0_16p0.json","10.66","true","9we69n2qx77","","2587","https://mcdermottlab.mit.edu/mturk_stimuli/bjmedina/global-music-2025-n_80/mem_stim_77.wav","0","main","","","false","mem_stim_77.wav","false","-1","","1","correct_rejection"
"","","","","","html-keyboard-response","48","238004","0.0-10.0-1.7","https://mcdermottlab.mit.edu/mturk_stimuli/bjmedina/global-music-2025-n_80/sequences/isi_16/len120/seq027_len120_s10_isi-1p0_0p0_16p0.json","10.66","true","9we69n2qx77","","null","<span style=""font-size: 40px"">+</span>","null","","","","","","","","","",""
"","","","","","audio-button-response","49","241318","0.0-10.0-2.7","https://mcdermottlab.mit.edu/mturk_stimuli/bjmedina/global-music-2025-n_80/sequences/isi_16/len120/seq027_len120_s10_isi-1p0_0p0_16p0.json","10.66","true","9we69n2qx77","","2901","https://mcdermottlab.mit.edu/mturk_stimuli/bjmedina/global-music-2025-n_80/mem_stim_49.wav","0","main","","","false","mem_stim_49.wav","false","-1","","1","correct_rejection"
"","","","","","html-keyboard-response","50","241377","0.0-10.0-1.8","https://mcdermottlab.mit.edu/mturk_stimuli/bjmedina/global-music-2025-n_80/sequences/isi_16/len120/seq027_len120_s10_isi-1p0_0p0_16p0.json","10.66","true","9we69n2qx77","","null","<span style=""font-size: 40px"">+</span>","null","","","","","","","","","",""
"","","","","","audio-button-response","51","245147","0.0-10.0-2.8","https://mcdermottlab.mit.edu/mturk_stimuli/bjmedina/global-music-2025-n_80/sequences/isi_16/len120/seq027_len120_s10_isi-1p0_0p0_16p0.json","10.66","true","9we69n2qx77","","3008","https://mcdermottlab.mit.edu/mturk_stimuli/bjmedina/global-music-2025-n_80/mem_stim_32.wav","0","main","","","false","mem_stim_32.wav","false","-1","","1","correct_rejection"
"","","","","","html-keyboard-response","52","245206","0.0-10.0-1.9","https://mcdermottlab.mit.edu/mturk_stimuli/bjmedina/global-music-2025-n_80/sequences/isi_16/len120/seq027_len120_s10_isi-1p0_0p0_16p0.json","10.66","true","9we69n2qx77","","null","<span style=""font-size: 40px"">+</span>","null","","","","","","","","","",""
"","","","","","audio-button-response","53","248301","0.0-10.0-2.9","https://mcdermottlab.mit.edu/mturk_stimuli/bjmedina/global-music-2025-n_80/sequences/isi_16/len120/seq027_len120_s10_isi-1p0_0p0_16p0.json","10.66","true","9we69n2qx77","","2720","https://mcdermottlab.mit.edu/mturk_stimuli/bjmedina/global-music-2025-n_80/mem_stim_21.wav","0","main","","","false","mem_stim_21.wav","false","-1","","1","correct_rejection"
"","","","","","html-keyboard-response","54","248358","0.0-10.0-1.10","https://mcdermottlab.mit.edu/mturk_stimuli/bjmedina/global-music-2025-n_80/sequences/isi_16/len120/seq027_len120_s10_isi-1p0_0p0_16p0.json","10.66","true","9we69n2qx77","","null","<span style=""font-size: 40px"">+</span>","null","","","","","","","","","",""
"","","","","","audio-button-response","55","251764","0.0-10.0-2.10","https://mcdermottlab.mit.edu/mturk_stimuli/bjmedina/global-music-2025-n_80/sequences/isi_16/len120/seq027_len120_s10_isi-1p0_0p0_16p0.json","10.66","true","9we69n2qx77","","2971","https://mcdermottlab.mit.edu/mturk_stimuli/bjmedina/global-music-2025-n_80/mem_stim_64.wav","0","main","","","false","mem_stim_64.wav","false","-1","","1","correct_rejection"
"","","","","","html-keyboard-response","56","251818","0.0-10.0-1.11","https://mcdermottlab.mit.edu/mturk_stimuli/bjmedina/global-music-2025-n_80/sequences/isi_16/len120/seq027_len120_s10_isi-1p0_0p0_16p0.json","10.66","true","9we69n2qx77","","null","<span style=""font-size: 40px"">+</span>","null","","","","","","","","","",""
"","","","","","audio-button-response","57","254836","0.0-10.0-2.11","https://mcdermottlab.mit.edu/mturk_stimuli/bjmedina/global-music-2025-n_80/sequences/isi_16/len120/seq027_len120_s10_isi-1p0_0p0_16p0.json","10.66","true","9we69n2qx77","","2768","https://mcdermottlab.mit.edu/mturk_stimuli/bjmedina/global-music-2025-n_80/mem_stim_47.wav","0","main","","","false","mem_stim_47.wav","false","-1","","1","correct_rejection"
"","","","","","html-keyboard-response","58","254894","0.0-10.0-1.12","https://mcdermottlab.mit.edu/mturk_stimuli/bjmedina/global-music-2025-n_80/sequences/isi_16/len120/seq027_len120_s10_isi-1p0_0p0_16p0.json","10.66","true","9we69n2qx77","","null","<span style=""font-size: 40px"">+</span>","null","","","","","","","","","",""
"","","","","","audio-button-response","59","257569","0.0-10.0-2.12","https://mcdermottlab.mit.edu/mturk_stimuli/bjmedina/global-music-2025-n_80/sequences/isi_16/len120/seq027_len120_s10_isi-1p0_0p0_16p0.json","10.66","true","9we69n2qx77","","2672","https://mcdermottlab.mit.edu/mturk_stimuli/bjmedina/global-music-2025-n_80/mem_stim_47.wav","3","main","","","true","mem_stim_47.wav","true","0","","0","miss"
"","","","","","html-keyboard-response","60","257627","0.0-10.0-1.13","https://mcdermottlab.mit.edu/mturk_stimuli/bjmedina/global-music-2025-n_80/sequences/isi_16/len120/seq027_len120_s10_isi-1p0_0p0_16p0.json","10.66","true","9we69n2qx77","","null","<span style=""font-size: 40px"">+</span>","null","","","","","","","","","",""
"","","","","","audio-button-response","61","260928","0.0-10.0-2.13","https://mcdermottlab.mit.edu/mturk_stimuli/bjmedina/global-music-2025-n_80/sequences/isi_16/len120/seq027_len120_s10_isi-1p0_0p0_16p0.json","10.66","true","9we69n2qx77","","2896","https://mcdermottlab.mit.edu/mturk_stimuli/bjmedina/global-music-2025-n_80/mem_stim_17.wav","1","main","","","false","mem_stim_17.wav","false","-1","","0","false_alarm"
"","","","","","html-keyboard-response","62","260991","0.0-10.0-1.14","https://mcdermottlab.mit.edu/mturk_stimuli/bjmedina/global-music-2025-n_80/sequences/isi_16/len120/seq027_len120_s10_isi-1p0_0p0_16p0.json","10.66","true","9we69n2qx77","","null","<span style=""font-size: 40px"">+</span>","null","","","","","","","","","",""
"","","","","","audio-button-response","63","265668","0.0-10.0-2.14","https://mcdermottlab.mit.edu/mturk_stimuli/bjmedina/global-music-2025-n_80/sequences/isi_16/len120/seq027_len120_s10_isi-1p0_0p0_16p0.json","10.66","true","9we69n2qx77","","4309","https://mcdermottlab.mit.edu/mturk_stimuli/bjmedina/global-music-2025-n_80/mem_stim_56.wav","0","main","","","false","mem_stim_56.wav","false","-1","","1","correct_rejection"
"","","","","","html-keyboard-response","64","265724","0.0-10.0-1.15","https://mcdermottlab.mit.edu/mturk_stimuli/bjmedina/global-music-2025-n_80/sequences/isi_16/len120/seq027_len120_s10_isi-1p0_0p0_16p0.json","10.66","true","9we69n2qx77","","null","<span style=""font-size: 40px"">+</span>","null","","","","","","","","","",""
"","","","","","audio-button-response","65","268767","0.0-10.0-2.15","https://mcdermottlab.mit.edu/mturk_stimuli/bjmedina/global-music-2025-n_80/sequences/isi_16/len120/seq027_len120_s10_isi-1p0_0p0_16p0.json","10.66","true","9we69n2qx77","","2565","https://mcdermottlab.mit.edu/mturk_stimuli/bjmedina/global-music-2025-n_80/mem_stim_46.wav","0","main","","","false","mem_stim_46.wav","false","-1","","1","correct_rejection"
"","","","","","html-keyboard-response","66","268822","0.0-10.0-1.16","https://mcdermottlab.mit.edu/mturk_stimuli/bjmedina/global-music-2025-n_80/sequences/isi_16/len120/seq027_len120_s10_isi-1p0_0p0_16p0.json","10.66","true","9we69n2qx77","","null","<span style=""font-size: 40px"">+</span>","null","","","","","","","","","",""
"","","","","","audio-button-response","67","272302","0.0-10.0-2.16","https://mcdermottlab.mit.edu/mturk_stimuli/bjmedina/global-music-2025-n_80/sequences/isi_16/len120/seq027_len120_s10_isi-1p0_0p0_16p0.json","10.66","true","9we69n2qx77","","3061","https://mcdermottlab.mit.edu/mturk_stimuli/bjmedina/global-music-2025-n_80/mem_stim_70.wav","0","main","","","false","mem_stim_70.wav","false","-1","","1","correct_rejection"
"","","","","","html-keyboard-response","68","272365","0.0-10.0-1.17","https://mcdermottlab.mit.edu/mturk_stimuli/bjmedina/global-music-2025-n_80/sequences/isi_16/len120/seq027_len120_s10_isi-1p0_0p0_16p0.json","10.66","true","9we69n2qx77","","null","<span style=""font-size: 40px"">+</span>","null","","","","","","","","","",""
"","","","","","audio-button-response","69","274834","0.0-10.0-2.17","https://mcdermottlab.mit.edu/mturk_stimuli/bjmedina/global-music-2025-n_80/sequences/isi_16/len120/seq027_len120_s10_isi-1p0_0p0_16p0.json","10.66","true","9we69n2qx77","","2469","https://mcdermottlab.mit.edu/mturk_stimuli/bjmedina/global-music-2025-n_80/mem_stim_35.wav","3","main","","","true","mem_stim_35.wav","false","16","","0","miss"
"","","","","","html-keyboard-response","70","274894","0.0-10.0-1.18","https://mcdermottlab.mit.edu/mturk_stimuli/bjmedina/global-music-2025-n_80/sequences/isi_16/len120/seq027_len120_s10_isi-1p0_0p0_16p0.json","10.66","true","9we69n2qx77","","null","<span style=""font-size: 40px"">+</span>","null","","","","","","","","","",""
"","","","","","audio-button-response","71","278032","0.0-10.0-2.18","https://mcdermottlab.mit.edu/mturk_stimuli/bjmedina/global-music-2025-n_80/sequences/isi_16/len120/seq027_len120_s10_isi-1p0_0p0_16p0.json","10.66","true","9we69n2qx77","","3141","https://mcdermottlab.mit.edu/mturk_stimuli/bjmedina/global-music-2025-n_80/mem_stim_27.wav","2","main","","","true","mem_stim_27.wav","false","16","","0","miss"
"","","","","","html-keyboard-response","72","278089","0.0-10.0-1.19","https://mcdermottlab.mit.edu/mturk_stimuli/bjmedina/global-music-2025-n_80/sequences/isi_16/len120/seq027_len120_s10_isi-1p0_0p0_16p0.json","10.66","true","9we69n2qx77","","null","<span style=""font-size: 40px"">+</span>","null","","","","","","","","","",""
"","","","","","audio-button-response","73","284674","0.0-10.0-2.19","https://mcdermottlab.mit.edu/mturk_stimuli/bjmedina/global-music-2025-n_80/sequences/isi_16/len120/seq027_len120_s10_isi-1p0_0p0_16p0.json","10.66","true","9we69n2qx77","","6112","https://mcdermottlab.mit.edu/mturk_stimuli/bjmedina/global-music-2025-n_80/mem_stim_79.wav","0","main","","","false","mem_stim_79.wav","false","-1","","1","correct_rejection"
"","","","","","html-keyboard-response","74","284732","0.0-10.0-1.20","https://mcdermottlab.mit.edu/mturk_stimuli/bjmedina/global-music-2025-n_80/sequences/isi_16/len120/seq027_len120_s10_isi-1p0_0p0_16p0.json","10.66","true","9we69n2qx77","","null","<span style=""font-size: 40px"">+</span>","null","","","","","","","","","",""
"","","","","","audio-button-response","75","288903","0.0-10.0-2.20","https://mcdermottlab.mit.edu/mturk_stimuli/bjmedina/global-music-2025-n_80/sequences/isi_16/len120/seq027_len120_s10_isi-1p0_0p0_16p0.json","10.66","true","9we69n2qx77","","3179","https://mcdermottlab.mit.edu/mturk_stimuli/bjmedina/global-music-2025-n_80/mem_stim_57.wav","1","main","","","false","mem_stim_57.wav","false","-1","","0","false_alarm"
"","","","","","html-keyboard-response","76","288958","0.0-10.0-1.21","https://mcdermottlab.mit.edu/mturk_stimuli/bjmedina/global-music-2025-n_80/sequences/isi_16/len120/seq027_len120_s10_isi-1p0_0p0_16p0.json","10.66","true","9we69n2qx77","","null","<span style=""font-size: 40px"">+</span>","null","","","","","","","","","",""
"","","","","","audio-button-response","77","292034","0.0-10.0-2.21","https://mcdermottlab.mit.edu/mturk_stimuli/bjmedina/global-music-2025-n_80/sequences/isi_16/len120/seq027_len120_s10_isi-1p0_0p0_16p0.json","10.66","true","9we69n2qx77","","2608","https://mcdermottlab.mit.edu/mturk_stimuli/bjmedina/global-music-2025-n_80/mem_stim_22.wav","0","main","","","false","mem_stim_22.wav","false","-1","","1","correct_rejection"
"","","","","","html-keyboard-response","78","292089","0.0-10.0-1.22","https://mcdermottlab.mit.edu/mturk_stimuli/bjmedina/global-music-2025-n_80/sequences/isi_16/len120/seq027_len120_s10_isi-1p0_0p0_16p0.json","10.66","true","9we69n2qx77","","null","<span style=""font-size: 40px"">+</span>","null","","","","","","","","","",""
"","","","","","audio-button-response","79","295801","0.0-10.0-2.22","https://mcdermottlab.mit.edu/mturk_stimuli/bjmedina/global-music-2025-n_80/sequences/isi_16/len120/seq027_len120_s10_isi-1p0_0p0_16p0.json","10.66","true","9we69n2qx77","","3232","https://mcdermottlab.mit.edu/mturk_stimuli/bjmedina/global-music-2025-n_80/mem_stim_30.wav","2","main","","","false","mem_stim_30.wav","false","-1","","1","correct_rejection"
"","","","","","html-keyboard-response","80","295855","0.0-10.0-1.23","https://mcdermottlab.mit.edu/mturk_stimuli/bjmedina/global-music-2025-n_80/sequences/isi_16/len120/seq027_len120_s10_isi-1p0_0p0_16p0.json","10.66","true","9we69n2qx77","","null","<span style=""font-size: 40px"">+</span>","null","","","","","","","","","",""
"","","","","","audio-button-response","81","299182","0.0-10.0-2.23","https://mcdermottlab.mit.edu/mturk_stimuli/bjmedina/global-music-2025-n_80/sequences/isi_16/len120/seq027_len120_s10_isi-1p0_0p0_16p0.json","10.66","true","9we69n2qx77","","3328","https://mcdermottlab.mit.edu/mturk_stimuli/bjmedina/global-music-2025-n_80/mem_stim_77.wav","2","main","","","true","mem_stim_77.wav","false","16","","0","miss"
"","","","","","html-keyboard-response","82","299237","0.0-10.0-1.24","https://mcdermottlab.mit.edu/mturk_stimuli/bjmedina/global-music-2025-n_80/sequences/isi_16/len120/seq027_len120_s10_isi-1p0_0p0_16p0.json","10.66","true","9we69n2qx77","","null","<span style=""font-size: 40px"">+</span>","null","","","","","","","","","",""
"","","","","","audio-button-response","83","302181","0.0-10.0-2.24","https://mcdermottlab.mit.edu/mturk_stimuli/bjmedina/global-music-2025-n_80/sequences/isi_16/len120/seq027_len120_s10_isi-1p0_0p0_16p0.json","10.66","true","9we69n2qx77","","2517","https://mcdermottlab.mit.edu/mturk_stimuli/bjmedina/global-music-2025-n_80/mem_stim_13.wav","1","main","","","false","mem_stim_13.wav","false","-1","","0","false_alarm"
"","","","","","html-keyboard-response","84","302235","0.0-10.0-1.25","https://mcdermottlab.mit.edu/mturk_stimuli/bjmedina/global-music-2025-n_80/sequences/isi_16/len120/seq027_len120_s10_isi-1p0_0p0_16p0.json","10.66","true","9we69n2qx77","","null","<span style=""font-size: 40px"">+</span>","null","","","","","","","","","",""
"","","","","","audio-button-response","85","304720","0.0-10.0-2.25","https://mcdermottlab.mit.edu/mturk_stimuli/bjmedina/global-music-2025-n_80/sequences/isi_16/len120/seq027_len120_s10_isi-1p0_0p0_16p0.json","10.66","true","9we69n2qx77","","2480","https://mcdermottlab.mit.edu/mturk_stimuli/bjmedina/global-music-2025-n_80/mem_stim_32.wav","3","main","","","true","mem_stim_32.wav","false","16","","0","miss"
"","","","","","html-keyboard-response","86","304775","0.0-10.0-1.26","https://mcdermottlab.mit.edu/mturk_stimuli/bjmedina/global-music-2025-n_80/sequences/isi_16/len120/seq027_len120_s10_isi-1p0_0p0_16p0.json","10.66","true","9we69n2qx77","","null","<span style=""font-size: 40px"">+</span>","null","","","","","","","","","",""
"","","","","","audio-button-response","87","307966","0.0-10.0-2.26","https://mcdermottlab.mit.edu/mturk_stimuli/bjmedina/global-music-2025-n_80/sequences/isi_16/len120/seq027_len120_s10_isi-1p0_0p0_16p0.json","10.66","true","9we69n2qx77","","2864","https://mcdermottlab.mit.edu/mturk_stimuli/bjmedina/global-music-2025-n_80/mem_stim_54.wav","1","main","","","false","mem_stim_54.wav","false","-1","","0","false_alarm"
"","","","","","html-keyboard-response","88","308021","0.0-10.0-1.27","https://mcdermottlab.mit.edu/mturk_stimuli/bjmedina/global-music-2025-n_80/sequences/isi_16/len120/seq027_len120_s10_isi-1p0_0p0_16p0.json","10.66","true","9we69n2qx77","","null","<span style=""font-size: 40px"">+</span>","null","","","","","","","","","",""
"","","","","","audio-button-response","89","310548","0.0-10.0-2.27","https://mcdermottlab.mit.edu/mturk_stimuli/bjmedina/global-music-2025-n_80/sequences/isi_16/len120/seq027_len120_s10_isi-1p0_0p0_16p0.json","10.66","true","9we69n2qx77","","2523","https://mcdermottlab.mit.edu/mturk_stimuli/bjmedina/global-music-2025-n_80/mem_stim_64.wav","3","main","","","true","mem_stim_64.wav","false","16","","0","miss"
"","","","","","html-keyboard-response","90","310603","0.0-10.0-1.28","https://mcdermottlab.mit.edu/mturk_stimuli/bjmedina/global-music-2025-n_80/sequences/isi_16/len120/seq027_len120_s10_isi-1p0_0p0_16p0.json","10.66","true","9we69n2qx77","","null","<span style=""font-size: 40px"">+</span>","null","","","","","","","","","",""
"","","","","","audio-button-response","91","313649","0.0-10.0-2.28","https://mcdermottlab.mit.edu/mturk_stimuli/bjmedina/global-music-2025-n_80/sequences/isi_16/len120/seq027_len120_s10_isi-1p0_0p0_16p0.json","10.66","true","9we69n2qx77","","2672","https://mcdermottlab.mit.edu/mturk_stimuli/bjmedina/global-music-2025-n_80/mem_stim_65.wav","0","main","","","false","mem_stim_65.wav","false","-1","","1","correct_rejection"
"","","","","","html-keyboard-response","92","313705","0.0-10.0-1.29","https://mcdermottlab.mit.edu/mturk_stimuli/bjmedina/global-music-2025-n_80/sequences/isi_16/len120/seq027_len120_s10_isi-1p0_0p0_16p0.json","10.66","true","9we69n2qx77","","null","<span style=""font-size: 40px"">+</span>","null","","","","","","","","","",""
"","","","","","audio-button-response","93","317815","0.0-10.0-2.29","https://mcdermottlab.mit.edu/mturk_stimuli/bjmedina/global-music-2025-n_80/sequences/isi_16/len120/seq027_len120_s10_isi-1p0_0p0_16p0.json","10.66","true","9we69n2qx77","","3717","https://mcdermottlab.mit.edu/mturk_stimuli/bjmedina/global-music-2025-n_80/mem_stim_0.wav","0","main","","","false","mem_stim_0.wav","false","-1","","1","correct_rejection"
"","","","","","html-keyboard-response","94","317869","0.0-10.0-1.30","https://mcdermottlab.mit.edu/mturk_stimuli/bjmedina/global-music-2025-n_80/sequences/isi_16/len120/seq027_len120_s10_isi-1p0_0p0_16p0.json","10.66","true","9we69n2qx77","","null","<span style=""font-size: 40px"">+</span>","null","","","","","","","","","",""
"","","","","","audio-button-response","95","321336","0.0-10.0-2.30","https://mcdermottlab.mit.edu/mturk_stimuli/bjmedina/global-music-2025-n_80/sequences/isi_16/len120/seq027_len120_s10_isi-1p0_0p0_16p0.json","10.66","true","9we69n2qx77","","3035","https://mcdermottlab.mit.edu/mturk_stimuli/bjmedina/global-music-2025-n_80/mem_stim_14.wav","1","main","","","false","mem_stim_14.wav","false","-1","","0","false_alarm"
"","","","","","html-keyboard-response","96","321396","0.0-10.0-1.31","https://mcdermottlab.mit.edu/mturk_stimuli/bjmedina/global-music-2025-n_80/sequences/isi_16/len120/seq027_len120_s10_isi-1p0_0p0_16p0.json","10.66","true","9we69n2qx77","","null","<span style=""font-size: 40px"">+</span>","null","","","","","","","","","",""
"","","","","","audio-button-response","97","324501","0.0-10.0-2.31","https://mcdermottlab.mit.edu/mturk_stimuli/bjmedina/global-music-2025-n_80/sequences/isi_16/len120/seq027_len120_s10_isi-1p0_0p0_16p0.json","10.66","true","9we69n2qx77","","2821","https://mcdermottlab.mit.edu/mturk_stimuli/bjmedina/global-music-2025-n_80/mem_stim_67.wav","1","main","","","false","mem_stim_67.wav","false","-1","","0","false_alarm"
"","","","","","html-keyboard-response","98","324555","0.0-10.0-1.32","https://mcdermottlab.mit.edu/mturk_stimuli/bjmedina/global-music-2025-n_80/sequences/isi_16/len120/seq027_len120_s10_isi-1p0_0p0_16p0.json","10.66","true","9we69n2qx77","","null","<span style=""font-size: 40px"">+</span>","null","","","","","","","","","",""
"","","","","","audio-button-response","99","327053","0.0-10.0-2.32","https://mcdermottlab.mit.edu/mturk_stimuli/bjmedina/global-music-2025-n_80/sequences/isi_16/len120/seq027_len120_s10_isi-1p0_0p0_16p0.json","10.66","true","9we69n2qx77","","2496","https://mcdermottlab.mit.edu/mturk_stimuli/bjmedina/global-music-2025-n_80/mem_stim_67.wav","3","main","","","true","mem_stim_67.wav","true","0","","0","miss"
"","","","","","html-keyboard-response","100","327110","0.0-10.0-1.33","https://mcdermottlab.mit.edu/mturk_stimuli/bjmedina/global-music-2025-n_80/sequences/isi_16/len120/seq027_len120_s10_isi-1p0_0p0_16p0.json","10.66","true","9we69n2qx77","","null","<span style=""font-size: 40px"">+</span>","null","","","","","","","","","",""
"","","","","","audio-button-response","101","329604","0.0-10.0-2.33","https://mcdermottlab.mit.edu/mturk_stimuli/bjmedina/global-music-2025-n_80/sequences/isi_16/len120/seq027_len120_s10_isi-1p0_0p0_16p0.json","10.66","true","9we69n2qx77","","2491","https://mcdermottlab.mit.edu/mturk_stimuli/bjmedina/global-music-2025-n_80/mem_stim_70.wav","2","main","","","true","mem_stim_70.wav","false","16","","0","miss"
"","","","","","html-keyboard-response","102","329659","0.0-10.0-1.34","https://mcdermottlab.mit.edu/mturk_stimuli/bjmedina/global-music-2025-n_80/sequences/isi_16/len120/seq027_len120_s10_isi-1p0_0p0_16p0.json","10.66","true","9we69n2qx77","","null","<span style=""font-size: 40px"">+</span>","null","","","","","","","","","",""
"","","","","","audio-button-response","103","332402","0.0-10.0-2.34","https://mcdermottlab.mit.edu/mturk_stimuli/bjmedina/global-music-2025-n_80/sequences/isi_16/len120/seq027_len120_s10_isi-1p0_0p0_16p0.json","10.66","true","9we69n2qx77","","2427","https://mcdermottlab.mit.edu/mturk_stimuli/bjmedina/global-music-2025-n_80/mem_stim_75.wav","0","main","","","false","mem_stim_75.wav","false","-1","","1","correct_rejection"
"","","","","","html-keyboard-response","104","332465","0.0-10.0-1.35","https://mcdermottlab.mit.edu/mturk_stimuli/bjmedina/global-music-2025-n_80/sequences/isi_16/len120/seq027_len120_s10_isi-1p0_0p0_16p0.json","10.66","true","9we69n2qx77","","null","<span style=""font-size: 40px"">+</span>","null","","","","","","","","","",""
"","","","","","audio-button-response","105","336016","0.0-10.0-2.35","https://mcdermottlab.mit.edu/mturk_stimuli/bjmedina/global-music-2025-n_80/sequences/isi_16/len120/seq027_len120_s10_isi-1p0_0p0_16p0.json","10.66","true","9we69n2qx77","","3077","https://mcdermottlab.mit.edu/mturk_stimuli/bjmedina/global-music-2025-n_80/mem_stim_33.wav","1","main","","","false","mem_stim_33.wav","false","-1","","0","false_alarm"
"","","","","","html-keyboard-response","106","336072","0.0-10.0-1.36","https://mcdermottlab.mit.edu/mturk_stimuli/bjmedina/global-music-2025-n_80/sequences/isi_16/len120/seq027_len120_s10_isi-1p0_0p0_16p0.json","10.66","true","9we69n2qx77","","null","<span style=""font-size: 40px"">+</span>","null","","","","","","","","","",""
"","","","","","audio-button-response","107","339717","0.0-10.0-2.36","https://mcdermottlab.mit.edu/mturk_stimuli/bjmedina/global-music-2025-n_80/sequences/isi_16/len120/seq027_len120_s10_isi-1p0_0p0_16p0.json","10.66","true","9we69n2qx77","","3643","https://mcdermottlab.mit.edu/mturk_stimuli/bjmedina/global-music-2025-n_80/mem_stim_79.wav","1","main","","","true","mem_stim_79.wav","false","16","","1","hit"
"","","","","","html-keyboard-response","108","339780","0.0-10.0-1.37","https://mcdermottlab.mit.edu/mturk_stimuli/bjmedina/global-music-2025-n_80/sequences/isi_16/len120/seq027_len120_s10_isi-1p0_0p0_16p0.json","10.66","true","9we69n2qx77","","null","<span style=""font-size: 40px"">+</span>","null","","","","","","","","","",""
"","","","","","audio-button-response","109","343167","0.0-10.0-2.37","https://mcdermottlab.mit.edu/mturk_stimuli/bjmedina/global-music-2025-n_80/sequences/isi_16/len120/seq027_len120_s10_isi-1p0_0p0_16p0.json","10.66","true","9we69n2qx77","","2928","https://mcdermottlab.mit.edu/mturk_stimuli/bjmedina/global-music-2025-n_80/mem_stim_52.wav","2","main","","","false","mem_stim_52.wav","false","-1","","1","correct_rejection"
"","","","","","html-keyboard-response","110","343223","0.0-10.0-1.38","https://mcdermottlab.mit.edu/mturk_stimuli/bjmedina/global-music-2025-n_80/sequences/isi_16/len120/seq027_len120_s10_isi-1p0_0p0_16p0.json","10.66","true","9we69n2qx77","","null","<span style=""font-size: 40px"">+</span>","null","","","","","","","","","",""
"","","","","","audio-button-response","111","347006","0.0-10.0-2.38","https://mcdermottlab.mit.edu/mturk_stimuli/bjmedina/global-music-2025-n_80/sequences/isi_16/len120/seq027_len120_s10_isi-1p0_0p0_16p0.json","10.66","true","9we69n2qx77","","3392","https://mcdermottlab.mit.edu/mturk_stimuli/bjmedina/global-music-2025-n_80/mem_stim_50.wav","1","main","","","false","mem_stim_50.wav","false","-1","","0","false_alarm"
"","","","","","html-keyboard-response","112","347068","0.0-10.0-1.39","https://mcdermottlab.mit.edu/mturk_stimuli/bjmedina/global-music-2025-n_80/sequences/isi_16/len120/seq027_len120_s10_isi-1p0_0p0_16p0.json","10.66","true","9we69n2qx77","","null","<span style=""font-size: 40px"">+</span>","null","","","","","","","","","",""
"","","","","","audio-button-response","113","351215","0.0-10.0-2.39","https://mcdermottlab.mit.edu/mturk_stimuli/bjmedina/global-music-2025-n_80/sequences/isi_16/len120/seq027_len120_s10_isi-1p0_0p0_16p0.json","10.66","true","9we69n2qx77","","3685","https://mcdermottlab.mit.edu/mturk_stimuli/bjmedina/global-music-2025-n_80/mem_stim_41.wav","1","main","","","false","mem_stim_41.wav","false","-1","","0","false_alarm"
"","","","","","html-keyboard-response","114","351269","0.0-10.0-1.40","https://mcdermottlab.mit.edu/mturk_stimuli/bjmedina/global-music-2025-n_80/sequences/isi_16/len120/seq027_len120_s10_isi-1p0_0p0_16p0.json","10.66","true","9we69n2qx77","","null","<span style=""font-size: 40px"">+</span>","null","","","","","","","","","",""
"","","","","","audio-button-response","115","353771","0.0-10.0-2.40","https://mcdermottlab.mit.edu/mturk_stimuli/bjmedina/global-music-2025-n_80/sequences/isi_16/len120/seq027_len120_s10_isi-1p0_0p0_16p0.json","10.66","true","9we69n2qx77","","2496","https://mcdermottlab.mit.edu/mturk_stimuli/bjmedina/global-music-2025-n_80/mem_stim_41.wav","3","main","","","true","mem_stim_41.wav","true","0","","0","miss"
"","","","","","html-keyboard-response","116","353827","0.0-10.0-1.41","https://mcdermottlab.mit.edu/mturk_stimuli/bjmedina/global-music-2025-n_80/sequences/isi_16/len120/seq027_len120_s10_isi-1p0_0p0_16p0.json","10.66","true","9we69n2qx77","","null","<span style=""font-size: 40px"">+</span>","null","","","","","","","","","",""
"","","","","","audio-button-response","117","357352","0.0-10.0-2.41","https://mcdermottlab.mit.edu/mturk_stimuli/bjmedina/global-music-2025-n_80/sequences/isi_16/len120/seq027_len120_s10_isi-1p0_0p0_16p0.json","10.66","true","9we69n2qx77","","3024","https://mcdermottlab.mit.edu/mturk_stimuli/bjmedina/global-music-2025-n_80/mem_stim_45.wav","1","main","","","false","mem_stim_45.wav","false","-1","","0","false_alarm"
"","","","","","html-keyboard-response","118","357411","0.0-10.0-1.42","https://mcdermottlab.mit.edu/mturk_stimuli/bjmedina/global-music-2025-n_80/sequences/isi_16/len120/seq027_len120_s10_isi-1p0_0p0_16p0.json","10.66","true","9we69n2qx77","","null","<span style=""font-size: 40px"">+</span>","null","","","","","","","","","",""
"","","","","","audio-button-response","119","360955","0.0-10.0-2.42","https://mcdermottlab.mit.edu/mturk_stimuli/bjmedina/global-music-2025-n_80/sequences/isi_16/len120/seq027_len120_s10_isi-1p0_0p0_16p0.json","10.66","true","9we69n2qx77","","3109","https://mcdermottlab.mit.edu/mturk_stimuli/bjmedina/global-music-2025-n_80/mem_stim_5.wav","2","main","","","false","mem_stim_5.wav","false","-1","","1","correct_rejection"
"","","","","","html-keyboard-response","120","361008","0.0-10.0-1.43","https://mcdermottlab.mit.edu/mturk_stimuli/bjmedina/global-music-2025-n_80/sequences/isi_16/len120/seq027_len120_s10_isi-1p0_0p0_16p0.json","10.66","true","9we69n2qx77","","null","<span style=""font-size: 40px"">+</span>","null","","","","","","","","","",""
"","","","","","audio-button-response","121","363568","0.0-10.0-2.43","https://mcdermottlab.mit.edu/mturk_stimuli/bjmedina/global-music-2025-n_80/sequences/isi_16/len120/seq027_len120_s10_isi-1p0_0p0_16p0.json","10.66","true","9we69n2qx77","","2555","https://mcdermottlab.mit.edu/mturk_stimuli/bjmedina/global-music-2025-n_80/mem_stim_54.wav","3","main","","","true","mem_stim_54.wav","false","16","","0","miss"
"","","","","","html-keyboard-response","122","363624","0.0-10.0-1.44","https://mcdermottlab.mit.edu/mturk_stimuli/bjmedina/global-music-2025-n_80/sequences/isi_16/len120/seq027_len120_s10_isi-1p0_0p0_16p0.json","10.66","true","9we69n2qx77","","null","<span style=""font-size: 40px"">+</span>","null","","","","","","","","","",""
"","","","","","audio-button-response","123","366684","0.0-10.0-2.44","https://mcdermottlab.mit.edu/mturk_stimuli/bjmedina/global-music-2025-n_80/sequences/isi_16/len120/seq027_len120_s10_isi-1p0_0p0_16p0.json","10.66","true","9we69n2qx77","","2640","https://mcdermottlab.mit.edu/mturk_stimuli/bjmedina/global-music-2025-n_80/mem_stim_74.wav","0","main","","","false","mem_stim_74.wav","false","-1","","1","correct_rejection"
"","","","","","html-keyboard-response","124","366744","0.0-10.0-1.45","https://mcdermottlab.mit.edu/mturk_stimuli/bjmedina/global-music-2025-n_80/sequences/isi_16/len120/seq027_len120_s10_isi-1p0_0p0_16p0.json","10.66","true","9we69n2qx77","","null","<span style=""font-size: 40px"">+</span>","null","","","","","","","","","",""
"","","","","","audio-button-response","125","370232","0.0-10.0-2.45","https://mcdermottlab.mit.edu/mturk_stimuli/bjmedina/global-music-2025-n_80/sequences/isi_16/len120/seq027_len120_s10_isi-1p0_0p0_16p0.json","10.66","true","9we69n2qx77","","2773","https://mcdermottlab.mit.edu/mturk_stimuli/bjmedina/global-music-2025-n_80/mem_stim_8.wav","0","main","","","false","mem_stim_8.wav","false","-1","","1","correct_rejection"
"","","","","","html-keyboard-response","126","370287","0.0-10.0-1.46","https://mcdermottlab.mit.edu/mturk_stimuli/bjmedina/global-music-2025-n_80/sequences/isi_16/len120/seq027_len120_s10_isi-1p0_0p0_16p0.json","10.66","true","9we69n2qx77","","null","<span style=""font-size: 40px"">+</span>","null","","","","","","","","","",""
"","","","","","audio-button-response","127","373369","0.0-10.0-2.46","https://mcdermottlab.mit.edu/mturk_stimuli/bjmedina/global-music-2025-n_80/sequences/isi_16/len120/seq027_len120_s10_isi-1p0_0p0_16p0.json","10.66","true","9we69n2qx77","","2709","https://mcdermottlab.mit.edu/mturk_stimuli/bjmedina/global-music-2025-n_80/mem_stim_6.wav","1","main","","","false","mem_stim_6.wav","false","-1","","0","false_alarm"
"","","","","","html-keyboard-response","128","373429","0.0-10.0-1.47","https://mcdermottlab.mit.edu/mturk_stimuli/bjmedina/global-music-2025-n_80/sequences/isi_16/len120/seq027_len120_s10_isi-1p0_0p0_16p0.json","10.66","true","9we69n2qx77","","null","<span style=""font-size: 40px"">+</span>","null","","","","","","","","","",""
"","","","","","audio-button-response","129","376714","0.0-10.0-2.47","https://mcdermottlab.mit.edu/mturk_stimuli/bjmedina/global-music-2025-n_80/sequences/isi_16/len120/seq027_len120_s10_isi-1p0_0p0_16p0.json","10.66","true","9we69n2qx77","","2453","https://mcdermottlab.mit.edu/mturk_stimuli/bjmedina/global-music-2025-n_80/mem_stim_69.wav","0","main","","","false","mem_stim_69.wav","false","-1","","1","correct_rejection"
"","","","","","html-keyboard-response","130","376768","0.0-10.0-1.48","https://mcdermottlab.mit.edu/mturk_stimuli/bjmedina/global-music-2025-n_80/sequences/isi_16/len120/seq027_len120_s10_isi-1p0_0p0_16p0.json","10.66","true","9we69n2qx77","","null","<span style=""font-size: 40px"">+</span>","null","","","","","","","","","",""
"","","","","","audio-button-response","131","380487","0.0-10.0-2.48","https://mcdermottlab.mit.edu/mturk_stimuli/bjmedina/global-music-2025-n_80/sequences/isi_16/len120/seq027_len120_s10_isi-1p0_0p0_16p0.json","10.66","true","9we69n2qx77","","2976","https://mcdermottlab.mit.edu/mturk_stimuli/bjmedina/global-music-2025-n_80/mem_stim_31.wav","1","main","","","false","mem_stim_31.wav","false","-1","","0","false_alarm"
"","","","","","html-keyboard-response","132","380547","0.0-10.0-1.49","https://mcdermottlab.mit.edu/mturk_stimuli/bjmedina/global-music-2025-n_80/sequences/isi_16/len120/seq027_len120_s10_isi-1p0_0p0_16p0.json","10.66","true","9we69n2qx77","","null","<span style=""font-size: 40px"">+</span>","null","","","","","","","","","",""
"","","","","","audio-button-response","133","383633","0.0-10.0-2.49","https://mcdermottlab.mit.edu/mturk_stimuli/bjmedina/global-music-2025-n_80/sequences/isi_16/len120/seq027_len120_s10_isi-1p0_0p0_16p0.json","10.66","true","9we69n2qx77","","3088","https://mcdermottlab.mit.edu/mturk_stimuli/bjmedina/global-music-2025-n_80/mem_stim_31.wav","3","main","","","true","mem_stim_31.wav","true","0","","0","miss"
"","","","","","html-keyboard-response","134","383688","0.0-10.0-1.50","https://mcdermottlab.mit.edu/mturk_stimuli/bjmedina/global-music-2025-n_80/sequences/isi_16/len120/seq027_len120_s10_isi-1p0_0p0_16p0.json","10.66","true","9we69n2qx77","","null","<span style=""font-size: 40px"">+</span>","null","","","","","","","","","",""
"","","","","","audio-button-response","135","388835","0.0-10.0-2.50","https://mcdermottlab.mit.edu/mturk_stimuli/bjmedina/global-music-2025-n_80/sequences/isi_16/len120/seq027_len120_s10_isi-1p0_0p0_16p0.json","10.66","true","9we69n2qx77","","4235","https://mcdermottlab.mit.edu/mturk_stimuli/bjmedina/global-music-2025-n_80/mem_stim_1.wav","1","main","","","false","mem_stim_1.wav","false","-1","","0","false_alarm"
"","","","","","html-keyboard-response","136","388900","0.0-10.0-1.51","https://mcdermottlab.mit.edu/mturk_stimuli/bjmedina/global-music-2025-n_80/sequences/isi_16/len120/seq027_len120_s10_isi-1p0_0p0_16p0.json","10.66","true","9we69n2qx77","","null","<span style=""font-size: 40px"">+</span>","null","","","","","","","","","",""
"","","","","","audio-button-response","137","392018","0.0-10.0-2.51","https://mcdermottlab.mit.edu/mturk_stimuli/bjmedina/global-music-2025-n_80/sequences/isi_16/len120/seq027_len120_s10_isi-1p0_0p0_16p0.json","10.66","true","9we69n2qx77","","2421","https://mcdermottlab.mit.edu/mturk_stimuli/bjmedina/global-music-2025-n_80/mem_stim_72.wav","2","main","","","false","mem_stim_72.wav","false","-1","","1","correct_rejection"
"","","","","","html-keyboard-response","138","392078","0.0-10.0-1.52","https://mcdermottlab.mit.edu/mturk_stimuli/bjmedina/global-music-2025-n_80/sequences/isi_16/len120/seq027_len120_s10_isi-1p0_0p0_16p0.json","10.66","true","9we69n2qx77","","null","<span style=""font-size: 40px"">+</span>","null","","","","","","","","","",""
"","","","","","audio-button-response","139","394820","0.0-10.0-2.52","https://mcdermottlab.mit.edu/mturk_stimuli/bjmedina/global-music-2025-n_80/sequences/isi_16/len120/seq027_len120_s10_isi-1p0_0p0_16p0.json","10.66","true","9we69n2qx77","","2736","https://mcdermottlab.mit.edu/mturk_stimuli/bjmedina/global-music-2025-n_80/mem_stim_33.wav","2","main","","","true","mem_stim_33.wav","false","16","","0","miss"
"","","","","","html-keyboard-response","140","394879","0.0-10.0-1.53","https://mcdermottlab.mit.edu/mturk_stimuli/bjmedina/global-music-2025-n_80/sequences/isi_16/len120/seq027_len120_s10_isi-1p0_0p0_16p0.json","10.66","true","9we69n2qx77","","null","<span style=""font-size: 40px"">+</span>","null","","","","","","","","","",""
"","","","","","audio-button-response","141","398087","0.0-10.0-2.53","https://mcdermottlab.mit.edu/mturk_stimuli/bjmedina/global-music-2025-n_80/sequences/isi_16/len120/seq027_len120_s10_isi-1p0_0p0_16p0.json","10.66","true","9we69n2qx77","","2645","https://mcdermottlab.mit.edu/mturk_stimuli/bjmedina/global-music-2025-n_80/mem_stim_9.wav","0","main","","","false","mem_stim_9.wav","false","-1","","1","correct_rejection"
"","","","","","html-keyboard-response","142","398143","0.0-10.0-1.54","https://mcdermottlab.mit.edu/mturk_stimuli/bjmedina/global-music-2025-n_80/sequences/isi_16/len120/seq027_len120_s10_isi-1p0_0p0_16p0.json","10.66","true","9we69n2qx77","","null","<span style=""font-size: 40px"">+</span>","null","","","","","","","","","",""
"","","","","","audio-button-response","143","400567","0.0-10.0-2.54","https://mcdermottlab.mit.edu/mturk_stimuli/bjmedina/global-music-2025-n_80/sequences/isi_16/len120/seq027_len120_s10_isi-1p0_0p0_16p0.json","10.66","true","9we69n2qx77","","2421","https://mcdermottlab.mit.edu/mturk_stimuli/bjmedina/global-music-2025-n_80/mem_stim_9.wav","3","main","","","true","mem_stim_9.wav","true","0","","0","miss"
"","","","","","html-keyboard-response","144","400628","0.0-10.0-1.55","https://mcdermottlab.mit.edu/mturk_stimuli/bjmedina/global-music-2025-n_80/sequences/isi_16/len120/seq027_len120_s10_isi-1p0_0p0_16p0.json","10.66","true","9we69n2qx77","","null","<span style=""font-size: 40px"">+</span>","null","","","","","","","","","",""
"","","","","","audio-button-response","145","403505","0.0-10.0-2.55","https://mcdermottlab.mit.edu/mturk_stimuli/bjmedina/global-music-2025-n_80/sequences/isi_16/len120/seq027_len120_s10_isi-1p0_0p0_16p0.json","10.66","true","9we69n2qx77","","2875","https://mcdermottlab.mit.edu/mturk_stimuli/bjmedina/global-music-2025-n_80/mem_stim_50.wav","1","main","","","true","mem_stim_50.wav","false","16","","1","hit"
"","","","","","html-keyboard-response","146","403565","0.0-10.0-1.56","https://mcdermottlab.mit.edu/mturk_stimuli/bjmedina/global-music-2025-n_80/sequences/isi_16/len120/seq027_len120_s10_isi-1p0_0p0_16p0.json","10.66","true","9we69n2qx77","","null","<span style=""font-size: 40px"">+</span>","null","","","","","","","","","",""
"","","","","","audio-button-response","147","407268","0.0-10.0-2.56","https://mcdermottlab.mit.edu/mturk_stimuli/bjmedina/global-music-2025-n_80/sequences/isi_16/len120/seq027_len120_s10_isi-1p0_0p0_16p0.json","10.66","true","9we69n2qx77","","3093","https://mcdermottlab.mit.edu/mturk_stimuli/bjmedina/global-music-2025-n_80/mem_stim_29.wav","0","main","","","false","mem_stim_29.wav","false","-1","","1","correct_rejection"
"","","","","","html-keyboard-response","148","407327","0.0-10.0-1.57","https://mcdermottlab.mit.edu/mturk_stimuli/bjmedina/global-music-2025-n_80/sequences/isi_16/len120/seq027_len120_s10_isi-1p0_0p0_16p0.json","10.66","true","9we69n2qx77","","null","<span style=""font-size: 40px"">+</span>","null","","","","","","","","","",""
"","","","","","audio-button-response","149","410717","0.0-10.0-2.57","https://mcdermottlab.mit.edu/mturk_stimuli/bjmedina/global-music-2025-n_80/sequences/isi_16/len120/seq027_len120_s10_isi-1p0_0p0_16p0.json","10.66","true","9we69n2qx77","","2635","https://mcdermottlab.mit.edu/mturk_stimuli/bjmedina/global-music-2025-n_80/mem_stim_63.wav","0","main","","","false","mem_stim_63.wav","false","-1","","1","correct_rejection"
"","","","","","html-keyboard-response","150","410775","0.0-10.0-1.58","https://mcdermottlab.mit.edu/mturk_stimuli/bjmedina/global-music-2025-n_80/sequences/isi_16/len120/seq027_len120_s10_isi-1p0_0p0_16p0.json","10.66","true","9we69n2qx77","","null","<span style=""font-size: 40px"">+</span>","null","","","","","","","","","",""
"","","","","","audio-button-response","151","413200","0.0-10.0-2.58","https://mcdermottlab.mit.edu/mturk_stimuli/bjmedina/global-music-2025-n_80/sequences/isi_16/len120/seq027_len120_s10_isi-1p0_0p0_16p0.json","10.66","true","9we69n2qx77","","2421","https://mcdermottlab.mit.edu/mturk_stimuli/bjmedina/global-music-2025-n_80/mem_stim_45.wav","3","main","","","true","mem_stim_45.wav","false","16","","0","miss"
"","","","","","html-keyboard-response","152","413257","0.0-10.0-1.59","https://mcdermottlab.mit.edu/mturk_stimuli/bjmedina/global-music-2025-n_80/sequences/isi_16/len120/seq027_len120_s10_isi-1p0_0p0_16p0.json","10.66","true","9we69n2qx77","","null","<span style=""font-size: 40px"">+</span>","null","","","","","","","","","",""
"","","","","","audio-button-response","153","415949","0.0-10.0-2.59","https://mcdermottlab.mit.edu/mturk_stimuli/bjmedina/global-music-2025-n_80/sequences/isi_16/len120/seq027_len120_s10_isi-1p0_0p0_16p0.json","10.66","true","9we69n2qx77","","2693","https://mcdermottlab.mit.edu/mturk_stimuli/bjmedina/global-music-2025-n_80/mem_stim_5.wav","2","main","","","true","mem_stim_5.wav","false","16","","0","miss"
"","","","","","html-keyboard-response","154","416003","0.0-10.0-1.60","https://mcdermottlab.mit.edu/mturk_stimuli/bjmedina/global-music-2025-n_80/sequences/isi_16/len120/seq027_len120_s10_isi-1p0_0p0_16p0.json","10.66","true","9we69n2qx77","","null","<span style=""font-size: 40px"">+</span>","null","","","","","","","","","",""
"","","","","","audio-button-response","155","420873","0.0-10.0-2.60","https://mcdermottlab.mit.edu/mturk_stimuli/bjmedina/global-music-2025-n_80/sequences/isi_16/len120/seq027_len120_s10_isi-1p0_0p0_16p0.json","10.66","true","9we69n2qx77","","4277","https://mcdermottlab.mit.edu/mturk_stimuli/bjmedina/global-music-2025-n_80/mem_stim_10.wav","1","main","","","false","mem_stim_10.wav","false","-1","","0","false_alarm"
"","","","","","html-keyboard-response","156","420931","0.0-10.0-1.61","https://mcdermottlab.mit.edu/mturk_stimuli/bjmedina/global-music-2025-n_80/sequences/isi_16/len120/seq027_len120_s10_isi-1p0_0p0_16p0.json","10.66","true","9we69n2qx77","","null","<span style=""font-size: 40px"">+</span>","null","","","","","","","","","",""
"","","","","","audio-button-response","157","423503","0.0-10.0-2.61","https://mcdermottlab.mit.edu/mturk_stimuli/bjmedina/global-music-2025-n_80/sequences/isi_16/len120/seq027_len120_s10_isi-1p0_0p0_16p0.json","10.66","true","9we69n2qx77","","2571","https://mcdermottlab.mit.edu/mturk_stimuli/bjmedina/global-music-2025-n_80/mem_stim_74.wav","3","main","","","true","mem_stim_74.wav","false","16","","0","miss"
"","","","","","html-keyboard-response","158","423562","0.0-10.0-1.62","https://mcdermottlab.mit.edu/mturk_stimuli/bjmedina/global-music-2025-n_80/sequences/isi_16/len120/seq027_len120_s10_isi-1p0_0p0_16p0.json","10.66","true","9we69n2qx77","","null","<span style=""font-size: 40px"">+</span>","null","","","","","","","","","",""
"","","","","","audio-button-response","159","426768","0.0-10.0-2.62","https://mcdermottlab.mit.edu/mturk_stimuli/bjmedina/global-music-2025-n_80/sequences/isi_16/len120/seq027_len120_s10_isi-1p0_0p0_16p0.json","10.66","true","9we69n2qx77","","2619","https://mcdermottlab.mit.edu/mturk_stimuli/bjmedina/global-music-2025-n_80/mem_stim_59.wav","1","main","","","false","mem_stim_59.wav","false","-1","","0","false_alarm"
"","","","","","html-keyboard-response","160","426824","0.0-10.0-1.63","https://mcdermottlab.mit.edu/mturk_stimuli/bjmedina/global-music-2025-n_80/sequences/isi_16/len120/seq027_len120_s10_isi-1p0_0p0_16p0.json","10.66","true","9we69n2qx77","","null","<span style=""font-size: 40px"">+</span>","null","","","","","","","","","",""
"","","","","","audio-button-response","161","429566","0.0-10.0-2.63","https://mcdermottlab.mit.edu/mturk_stimuli/bjmedina/global-music-2025-n_80/sequences/isi_16/len120/seq027_len120_s10_isi-1p0_0p0_16p0.json","10.66","true","9we69n2qx77","","2741","https://mcdermottlab.mit.edu/mturk_stimuli/bjmedina/global-music-2025-n_80/mem_stim_6.wav","3","main","","","true","mem_stim_6.wav","false","16","","0","miss"
"","","","","","html-keyboard-response","162","429622","0.0-10.0-1.64","https://mcdermottlab.mit.edu/mturk_stimuli/bjmedina/global-music-2025-n_80/sequences/isi_16/len120/seq027_len120_s10_isi-1p0_0p0_16p0.json","10.66","true","9we69n2qx77","","null","<span style=""font-size: 40px"">+</span>","null","","","","","","","","","",""
"","","","","","audio-button-response","163","433503","0.0-10.0-2.64","https://mcdermottlab.mit.edu/mturk_stimuli/bjmedina/global-music-2025-n_80/sequences/isi_16/len120/seq027_len120_s10_isi-1p0_0p0_16p0.json","10.66","true","9we69n2qx77","","3877","https://mcdermottlab.mit.edu/mturk_stimuli/bjmedina/global-music-2025-n_80/mem_stim_69.wav","3","main","","","true","mem_stim_69.wav","false","16","","0","miss"
"","","","","","html-keyboard-response","164","433565","0.0-10.0-1.65","https://mcdermottlab.mit.edu/mturk_stimuli/bjmedina/global-music-2025-n_80/sequences/isi_16/len120/seq027_len120_s10_isi-1p0_0p0_16p0.json","10.66","true","9we69n2qx77","","null","<span style=""font-size: 40px"">+</span>","null","","","","","","","","","",""
"","","","","","audio-button-response","165","436902","0.0-10.0-2.65","https://mcdermottlab.mit.edu/mturk_stimuli/bjmedina/global-music-2025-n_80/sequences/isi_16/len120/seq027_len120_s10_isi-1p0_0p0_16p0.json","10.66","true","9we69n2qx77","","2581","https://mcdermottlab.mit.edu/mturk_stimuli/bjmedina/global-music-2025-n_80/mem_stim_53.wav","0","main","","","false","mem_stim_53.wav","false","-1","","1","correct_rejection"
"","","","","","html-keyboard-response","166","436965","0.0-10.0-1.66","https://mcdermottlab.mit.edu/mturk_stimuli/bjmedina/global-music-2025-n_80/sequences/isi_16/len120/seq027_len120_s10_isi-1p0_0p0_16p0.json","10.66","true","9we69n2qx77","","null","<span style=""font-size: 40px"">+</span>","null","","","","","","","","","",""
"","","","","","audio-button-response","167","439811","0.0-10.0-2.66","https://mcdermottlab.mit.edu/mturk_stimuli/bjmedina/global-music-2025-n_80/sequences/isi_16/len120/seq027_len120_s10_isi-1p0_0p0_16p0.json","10.66","true","9we69n2qx77","","2368","https://mcdermottlab.mit.edu/mturk_stimuli/bjmedina/global-music-2025-n_80/mem_stim_4.wav","3","main","","","false","mem_stim_4.wav","false","-1","","1","correct_rejection"
"","","","","","html-keyboard-response","168","439867","0.0-10.0-1.67","https://mcdermottlab.mit.edu/mturk_stimuli/bjmedina/global-music-2025-n_80/sequences/isi_16/len120/seq027_len120_s10_isi-1p0_0p0_16p0.json","10.66","true","9we69n2qx77","","null","<span style=""font-size: 40px"">+</span>","null","","","","","","","","","",""
"","","","","","audio-button-response","169","443167","0.0-10.0-2.67","https://mcdermottlab.mit.edu/mturk_stimuli/bjmedina/global-music-2025-n_80/sequences/isi_16/len120/seq027_len120_s10_isi-1p0_0p0_16p0.json","10.66","true","9we69n2qx77","","3296","https://mcdermottlab.mit.edu/mturk_stimuli/bjmedina/global-music-2025-n_80/mem_stim_1.wav","1","main","","","true","mem_stim_1.wav","false","16","","1","hit"
"","","","","","html-keyboard-response","170","443222","0.0-10.0-1.68","https://mcdermottlab.mit.edu/mturk_stimuli/bjmedina/global-music-2025-n_80/sequences/isi_16/len120/seq027_len120_s10_isi-1p0_0p0_16p0.json","10.66","true","9we69n2qx77","","null","<span style=""font-size: 40px"">+</span>","null","","","","","","","","","",""
"","","","","","audio-button-response","171","446617","0.0-10.0-2.68","https://mcdermottlab.mit.edu/mturk_stimuli/bjmedina/global-music-2025-n_80/sequences/isi_16/len120/seq027_len120_s10_isi-1p0_0p0_16p0.json","10.66","true","9we69n2qx77","","2800","https://mcdermottlab.mit.edu/mturk_stimuli/bjmedina/global-music-2025-n_80/mem_stim_11.wav","2","main","","","false","mem_stim_11.wav","false","-1","","1","correct_rejection"
"","","","","","html-keyboard-response","172","446680","0.0-10.0-1.69","https://mcdermottlab.mit.edu/mturk_stimuli/bjmedina/global-music-2025-n_80/sequences/isi_16/len120/seq027_len120_s10_isi-1p0_0p0_16p0.json","10.66","true","9we69n2qx77","","null","<span style=""font-size: 40px"">+</span>","null","","","","","","","","","",""
"","","","","","audio-button-response","173","450250","0.0-10.0-2.69","https://mcdermottlab.mit.edu/mturk_stimuli/bjmedina/global-music-2025-n_80/sequences/isi_16/len120/seq027_len120_s10_isi-1p0_0p0_16p0.json","10.66","true","9we69n2qx77","","3077","https://mcdermottlab.mit.edu/mturk_stimuli/bjmedina/global-music-2025-n_80/mem_stim_43.wav","2","main","","","false","mem_stim_43.wav","false","-1","","1","correct_rejection"
"","","","","","html-keyboard-response","174","450312","0.0-10.0-1.70","https://mcdermottlab.mit.edu/mturk_stimuli/bjmedina/global-music-2025-n_80/sequences/isi_16/len120/seq027_len120_s10_isi-1p0_0p0_16p0.json","10.66","true","9we69n2qx77","","null","<span style=""font-size: 40px"">+</span>","null","","","","","","","","","",""
"","","","","","audio-button-response","175","454333","0.0-10.0-2.70","https://mcdermottlab.mit.edu/mturk_stimuli/bjmedina/global-music-2025-n_80/sequences/isi_16/len120/seq027_len120_s10_isi-1p0_0p0_16p0.json","10.66","true","9we69n2qx77","","3531","https://mcdermottlab.mit.edu/mturk_stimuli/bjmedina/global-music-2025-n_80/mem_stim_34.wav","0","main","","","false","mem_stim_34.wav","false","-1","","1","correct_rejection"
"","","","","","html-keyboard-response","176","454396","0.0-10.0-1.71","https://mcdermottlab.mit.edu/mturk_stimuli/bjmedina/global-music-2025-n_80/sequences/isi_16/len120/seq027_len120_s10_isi-1p0_0p0_16p0.json","10.66","true","9we69n2qx77","","null","<span style=""font-size: 40px"">+</span>","null","","","","","","","","","",""
"","","","","","audio-button-response","177","458115","0.0-10.0-2.71","https://mcdermottlab.mit.edu/mturk_stimuli/bjmedina/global-music-2025-n_80/sequences/isi_16/len120/seq027_len120_s10_isi-1p0_0p0_16p0.json","10.66","true","9we69n2qx77","","3179","https://mcdermottlab.mit.edu/mturk_stimuli/bjmedina/global-music-2025-n_80/mem_stim_66.wav","1","main","","","false","mem_stim_66.wav","false","-1","","0","false_alarm"
"","","","","","html-keyboard-response","178","458186","0.0-10.0-1.72","https://mcdermottlab.mit.edu/mturk_stimuli/bjmedina/global-music-2025-n_80/sequences/isi_16/len120/seq027_len120_s10_isi-1p0_0p0_16p0.json","10.66","true","9we69n2qx77","","null","<span style=""font-size: 40px"">+</span>","null","","","","","","","","","",""
"","","","","","audio-button-response","179","461536","0.0-10.0-2.72","https://mcdermottlab.mit.edu/mturk_stimuli/bjmedina/global-music-2025-n_80/sequences/isi_16/len120/seq027_len120_s10_isi-1p0_0p0_16p0.json","10.66","true","9we69n2qx77","","3349","https://mcdermottlab.mit.edu/mturk_stimuli/bjmedina/global-music-2025-n_80/mem_stim_66.wav","3","main","","","true","mem_stim_66.wav","true","0","","0","miss"
"","","","","","html-keyboard-response","180","461597","0.0-10.0-1.73","https://mcdermottlab.mit.edu/mturk_stimuli/bjmedina/global-music-2025-n_80/sequences/isi_16/len120/seq027_len120_s10_isi-1p0_0p0_16p0.json","10.66","true","9we69n2qx77","","null","<span style=""font-size: 40px"">+</span>","null","","","","","","","","","",""
"","","","","","audio-button-response","181","465507","0.0-10.0-2.73","https://mcdermottlab.mit.edu/mturk_stimuli/bjmedina/global-music-2025-n_80/sequences/isi_16/len120/seq027_len120_s10_isi-1p0_0p0_16p0.json","10.66","true","9we69n2qx77","","3403","https://mcdermottlab.mit.edu/mturk_stimuli/bjmedina/global-music-2025-n_80/mem_stim_24.wav","1","main","","","false","mem_stim_24.wav","false","-1","","0","false_alarm"
"","","","","","html-keyboard-response","182","465563","0.0-10.0-1.74","https://mcdermottlab.mit.edu/mturk_stimuli/bjmedina/global-music-2025-n_80/sequences/isi_16/len120/seq027_len120_s10_isi-1p0_0p0_16p0.json","10.66","true","9we69n2qx77","","null","<span style=""font-size: 40px"">+</span>","null","","","","","","","","","",""
"","","","","","audio-button-response","183","468335","0.0-10.0-2.74","https://mcdermottlab.mit.edu/mturk_stimuli/bjmedina/global-music-2025-n_80/sequences/isi_16/len120/seq027_len120_s10_isi-1p0_0p0_16p0.json","10.66","true","9we69n2qx77","","2768","https://mcdermottlab.mit.edu/mturk_stimuli/bjmedina/global-music-2025-n_80/mem_stim_63.wav","3","main","","","true","mem_stim_63.wav","false","16","","0","miss"
"","","","","","html-keyboard-response","184","468393","0.0-10.0-1.75","https://mcdermottlab.mit.edu/mturk_stimuli/bjmedina/global-music-2025-n_80/sequences/isi_16/len120/seq027_len120_s10_isi-1p0_0p0_16p0.json","10.66","true","9we69n2qx77","","null","<span style=""font-size: 40px"">+</span>","null","","","","","","","","","",""
"","","","","","audio-button-response","185","472337","0.0-10.0-2.75","https://mcdermottlab.mit.edu/mturk_stimuli/bjmedina/global-music-2025-n_80/sequences/isi_16/len120/seq027_len120_s10_isi-1p0_0p0_16p0.json","10.66","true","9we69n2qx77","","2805","https://mcdermottlab.mit.edu/mturk_stimuli/bjmedina/global-music-2025-n_80/mem_stim_71.wav","1","main","","","false","mem_stim_71.wav","false","-1","","0","false_alarm"
"","","","","","html-keyboard-response","186","472393","0.0-10.0-1.76","https://mcdermottlab.mit.edu/mturk_stimuli/bjmedina/global-music-2025-n_80/sequences/isi_16/len120/seq027_len120_s10_isi-1p0_0p0_16p0.json","10.66","true","9we69n2qx77","","null","<span style=""font-size: 40px"">+</span>","null","","","","","","","","","",""
"","","","","","audio-button-response","187","474915","0.0-10.0-2.76","https://mcdermottlab.mit.edu/mturk_stimuli/bjmedina/global-music-2025-n_80/sequences/isi_16/len120/seq027_len120_s10_isi-1p0_0p0_16p0.json","10.66","true","9we69n2qx77","","2523","https://mcdermottlab.mit.edu/mturk_stimuli/bjmedina/global-music-2025-n_80/mem_stim_71.wav","3","main","","","true","mem_stim_71.wav","true","0","","0","miss"
"","","","","","html-keyboard-response","188","474970","0.0-10.0-1.77","https://mcdermottlab.mit.edu/mturk_stimuli/bjmedina/global-music-2025-n_80/sequences/isi_16/len120/seq027_len120_s10_isi-1p0_0p0_16p0.json","10.66","true","9we69n2qx77","","null","<span style=""font-size: 40px"">+</span>","null","","","","","","","","","",""
"","","","","","audio-button-response","189","480968","0.0-10.0-2.77","https://mcdermottlab.mit.edu/mturk_stimuli/bjmedina/global-music-2025-n_80/sequences/isi_16/len120/seq027_len120_s10_isi-1p0_0p0_16p0.json","10.66","true","9we69n2qx77","","5451","https://mcdermottlab.mit.edu/mturk_stimuli/bjmedina/global-music-2025-n_80/mem_stim_78.wav","3","main","","","false","mem_stim_78.wav","false","-1","","1","correct_rejection"
"","","","","","html-keyboard-response","190","481025","0.0-10.0-1.78","https://mcdermottlab.mit.edu/mturk_stimuli/bjmedina/global-music-2025-n_80/sequences/isi_16/len120/seq027_len120_s10_isi-1p0_0p0_16p0.json","10.66","true","9we69n2qx77","","null","<span style=""font-size: 40px"">+</span>","null","","","","","","","","","",""
"","","","","","audio-button-response","191","484987","0.0-10.0-2.78","https://mcdermottlab.mit.edu/mturk_stimuli/bjmedina/global-music-2025-n_80/sequences/isi_16/len120/seq027_len120_s10_isi-1p0_0p0_16p0.json","10.66","true","9we69n2qx77","","3957","https://mcdermottlab.mit.edu/mturk_stimuli/bjmedina/global-music-2025-n_80/mem_stim_78.wav","3","main","","","true","mem_stim_78.wav","true","0","","0","miss"
"","","","","","html-keyboard-response","192","485044","0.0-10.0-1.79","https://mcdermottlab.mit.edu/mturk_stimuli/bjmedina/global-music-2025-n_80/sequences/isi_16/len120/seq027_len120_s10_isi-1p0_0p0_16p0.json","10.66","true","9we69n2qx77","","null","<span style=""font-size: 40px"">+</span>","null","","","","","","","","","",""
"","","","","","audio-button-response","193","487535","0.0-10.0-2.79","https://mcdermottlab.mit.edu/mturk_stimuli/bjmedina/global-music-2025-n_80/sequences/isi_16/len120/seq027_len120_s10_isi-1p0_0p0_16p0.json","10.66","true","9we69n2qx77","","2491","https://mcdermottlab.mit.edu/mturk_stimuli/bjmedina/global-music-2025-n_80/mem_stim_59.wav","3","main","","","true","mem_stim_59.wav","false","16","","0","miss"
"","","","","","html-keyboard-response","194","487591","0.0-10.0-1.80","https://mcdermottlab.mit.edu/mturk_stimuli/bjmedina/global-music-2025-n_80/sequences/isi_16/len120/seq027_len120_s10_isi-1p0_0p0_16p0.json","10.66","true","9we69n2qx77","","null","<span style=""font-size: 40px"">+</span>","null","","","","","","","","","",""
"","","","","","audio-button-response","195","490635","0.0-10.0-2.80","https://mcdermottlab.mit.edu/mturk_stimuli/bjmedina/global-music-2025-n_80/sequences/isi_16/len120/seq027_len120_s10_isi-1p0_0p0_16p0.json","10.66","true","9we69n2qx77","","2485","https://mcdermottlab.mit.edu/mturk_stimuli/bjmedina/global-music-2025-n_80/mem_stim_73.wav","0","main","","","false","mem_stim_73.wav","false","-1","","1","correct_rejection"
"","","","","","html-keyboard-response","196","490691","0.0-10.0-1.81","https://mcdermottlab.mit.edu/mturk_stimuli/bjmedina/global-music-2025-n_80/sequences/isi_16/len120/seq027_len120_s10_isi-1p0_0p0_16p0.json","10.66","true","9we69n2qx77","","null","<span style=""font-size: 40px"">+</span>","null","","","","","","","","","",""
"","","","","","audio-button-response","197","493501","0.0-10.0-2.81","https://mcdermottlab.mit.edu/mturk_stimuli/bjmedina/global-music-2025-n_80/sequences/isi_16/len120/seq027_len120_s10_isi-1p0_0p0_16p0.json","10.66","true","9we69n2qx77","","2416","https://mcdermottlab.mit.edu/mturk_stimuli/bjmedina/global-music-2025-n_80/mem_stim_15.wav","0","main","","","false","mem_stim_15.wav","false","-1","","1","correct_rejection"
"","","","","","html-keyboard-response","198","493562","0.0-10.0-1.82","https://mcdermottlab.mit.edu/mturk_stimuli/bjmedina/global-music-2025-n_80/sequences/isi_16/len120/seq027_len120_s10_isi-1p0_0p0_16p0.json","10.66","true","9we69n2qx77","","null","<span style=""font-size: 40px"">+</span>","null","","","","","","","","","",""
"","","","","","audio-button-response","199","496269","0.0-10.0-2.82","https://mcdermottlab.mit.edu/mturk_stimuli/bjmedina/global-music-2025-n_80/sequences/isi_16/len120/seq027_len120_s10_isi-1p0_0p0_16p0.json","10.66","true","9we69n2qx77","","2709","https://mcdermottlab.mit.edu/mturk_stimuli/bjmedina/global-music-2025-n_80/mem_stim_53.wav","2","main","","","true","mem_stim_53.wav","false","16","","0","miss"
"","","","","","html-keyboard-response","200","496325","0.0-10.0-1.83","https://mcdermottlab.mit.edu/mturk_stimuli/bjmedina/global-music-2025-n_80/sequences/isi_16/len120/seq027_len120_s10_isi-1p0_0p0_16p0.json","10.66","true","9we69n2qx77","","null","<span style=""font-size: 40px"">+</span>","null","","","","","","","","","",""
"","","","","","audio-button-response","201","498766","0.0-10.0-2.83","https://mcdermottlab.mit.edu/mturk_stimuli/bjmedina/global-music-2025-n_80/sequences/isi_16/len120/seq027_len120_s10_isi-1p0_0p0_16p0.json","10.66","true","9we69n2qx77","","2443","https://mcdermottlab.mit.edu/mturk_stimuli/bjmedina/global-music-2025-n_80/mem_stim_4.wav","3","main","","","true","mem_stim_4.wav","false","16","","0","miss"
"","","","","","html-keyboard-response","202","498822","0.0-10.0-1.84","https://mcdermottlab.mit.edu/mturk_stimuli/bjmedina/global-music-2025-n_80/sequences/isi_16/len120/seq027_len120_s10_isi-1p0_0p0_16p0.json","10.66","true","9we69n2qx77","","null","<span style=""font-size: 40px"">+</span>","null","","","","","","","","","",""
"","","","","","audio-button-response","203","503933","0.0-10.0-2.84","https://mcdermottlab.mit.edu/mturk_stimuli/bjmedina/global-music-2025-n_80/sequences/isi_16/len120/seq027_len120_s10_isi-1p0_0p0_16p0.json","10.66","true","9we69n2qx77","","4363","https://mcdermottlab.mit.edu/mturk_stimuli/bjmedina/global-music-2025-n_80/mem_stim_25.wav","1","main","","","false","mem_stim_25.wav","false","-1","","0","false_alarm"
"","","","","","html-keyboard-response","204","503995","0.0-10.0-1.85","https://mcdermottlab.mit.edu/mturk_stimuli/bjmedina/global-music-2025-n_80/sequences/isi_16/len120/seq027_len120_s10_isi-1p0_0p0_16p0.json","10.66","true","9we69n2qx77","","null","<span style=""font-size: 40px"">+</span>","null","","","","","","","","","",""
"","","","","","audio-button-response","205","507501","0.0-10.0-2.85","https://mcdermottlab.mit.edu/mturk_stimuli/bjmedina/global-music-2025-n_80/sequences/isi_16/len120/seq027_len120_s10_isi-1p0_0p0_16p0.json","10.66","true","9we69n2qx77","","2843","https://mcdermottlab.mit.edu/mturk_stimuli/bjmedina/global-music-2025-n_80/mem_stim_12.wav","0","main","","","false","mem_stim_12.wav","false","-1","","1","correct_rejection"
"","","","","","html-keyboard-response","206","507560","0.0-10.0-1.86","https://mcdermottlab.mit.edu/mturk_stimuli/bjmedina/global-music-2025-n_80/sequences/isi_16/len120/seq027_len120_s10_isi-1p0_0p0_16p0.json","10.66","true","9we69n2qx77","","null","<span style=""font-size: 40px"">+</span>","null","","","","","","","","","",""
"","","","","","audio-button-response","207","510585","0.0-10.0-2.86","https://mcdermottlab.mit.edu/mturk_stimuli/bjmedina/global-music-2025-n_80/sequences/isi_16/len120/seq027_len120_s10_isi-1p0_0p0_16p0.json","10.66","true","9we69n2qx77","","2416","https://mcdermottlab.mit.edu/mturk_stimuli/bjmedina/global-music-2025-n_80/mem_stim_44.wav","3","main","","","false","mem_stim_44.wav","false","-1","","1","correct_rejection"
"","","","","","html-keyboard-response","208","510645","0.0-10.0-1.87","https://mcdermottlab.mit.edu/mturk_stimuli/bjmedina/global-music-2025-n_80/sequences/isi_16/len120/seq027_len120_s10_isi-1p0_0p0_16p0.json","10.66","true","9we69n2qx77","","null","<span style=""font-size: 40px"">+</span>","null","","","","","","","","","",""
"","","","","","audio-button-response","209","513919","0.0-10.0-2.87","https://mcdermottlab.mit.edu/mturk_stimuli/bjmedina/global-music-2025-n_80/sequences/isi_16/len120/seq027_len120_s10_isi-1p0_0p0_16p0.json","10.66","true","9we69n2qx77","","2635","https://mcdermottlab.mit.edu/mturk_stimuli/bjmedina/global-music-2025-n_80/mem_stim_51.wav","2","main","","","false","mem_stim_51.wav","false","-1","","1","correct_rejection"
"","","","","","html-keyboard-response","210","513978","0.0-10.0-1.88","https://mcdermottlab.mit.edu/mturk_stimuli/bjmedina/global-music-2025-n_80/sequences/isi_16/len120/seq027_len120_s10_isi-1p0_0p0_16p0.json","10.66","true","9we69n2qx77","","null","<span style=""font-size: 40px"">+</span>","null","","","","","","","","","",""
"","","","","","audio-button-response","211","517268","0.0-10.0-2.88","https://mcdermottlab.mit.edu/mturk_stimuli/bjmedina/global-music-2025-n_80/sequences/isi_16/len120/seq027_len120_s10_isi-1p0_0p0_16p0.json","10.66","true","9we69n2qx77","","2709","https://mcdermottlab.mit.edu/mturk_stimuli/bjmedina/global-music-2025-n_80/mem_stim_38.wav","1","main","","","false","mem_stim_38.wav","false","-1","","0","false_alarm"
"","","","","","html-keyboard-response","212","517326","0.0-10.0-1.89","https://mcdermottlab.mit.edu/mturk_stimuli/bjmedina/global-music-2025-n_80/sequences/isi_16/len120/seq027_len120_s10_isi-1p0_0p0_16p0.json","10.66","true","9we69n2qx77","","null","<span style=""font-size: 40px"">+</span>","null","","","","","","","","","",""
"","","","","","audio-button-response","213","523219","0.0-10.0-2.89","https://mcdermottlab.mit.edu/mturk_stimuli/bjmedina/global-music-2025-n_80/sequences/isi_16/len120/seq027_len120_s10_isi-1p0_0p0_16p0.json","10.66","true","9we69n2qx77","","5344","https://mcdermottlab.mit.edu/mturk_stimuli/bjmedina/global-music-2025-n_80/mem_stim_40.wav","1","main","","","false","mem_stim_40.wav","false","-1","","0","false_alarm"
"","","","","","html-keyboard-response","214","523282","0.0-10.0-1.90","https://mcdermottlab.mit.edu/mturk_stimuli/bjmedina/global-music-2025-n_80/sequences/isi_16/len120/seq027_len120_s10_isi-1p0_0p0_16p0.json","10.66","true","9we69n2qx77","","null","<span style=""font-size: 40px"">+</span>","null","","","","","","","","","",""
"","","","","","audio-button-response","215","526505","0.0-10.0-2.90","https://mcdermottlab.mit.edu/mturk_stimuli/bjmedina/global-music-2025-n_80/sequences/isi_16/len120/seq027_len120_s10_isi-1p0_0p0_16p0.json","10.66","true","9we69n2qx77","","2651","https://mcdermottlab.mit.edu/mturk_stimuli/bjmedina/global-music-2025-n_80/mem_stim_62.wav","0","main","","","false","mem_stim_62.wav","false","-1","","1","correct_rejection"
"","","","","","html-keyboard-response","216","526562","0.0-10.0-1.91","https://mcdermottlab.mit.edu/mturk_stimuli/bjmedina/global-music-2025-n_80/sequences/isi_16/len120/seq027_len120_s10_isi-1p0_0p0_16p0.json","10.66","true","9we69n2qx77","","null","<span style=""font-size: 40px"">+</span>","null","","","","","","","","","",""
"","","","","","audio-button-response","217","529916","0.0-10.0-2.91","https://mcdermottlab.mit.edu/mturk_stimuli/bjmedina/global-music-2025-n_80/sequences/isi_16/len120/seq027_len120_s10_isi-1p0_0p0_16p0.json","10.66","true","9we69n2qx77","","2656","https://mcdermottlab.mit.edu/mturk_stimuli/bjmedina/global-music-2025-n_80/mem_stim_68.wav","0","main","","","false","mem_stim_68.wav","false","-1","","1","correct_rejection"
"","","","","","html-keyboard-response","218","529971","0.0-10.0-1.92","https://mcdermottlab.mit.edu/mturk_stimuli/bjmedina/global-music-2025-n_80/sequences/isi_16/len120/seq027_len120_s10_isi-1p0_0p0_16p0.json","10.66","true","9we69n2qx77","","null","<span style=""font-size: 40px"">+</span>","null","","","","","","","","","",""
"","","","","","audio-button-response","219","533037","0.0-10.0-2.92","https://mcdermottlab.mit.edu/mturk_stimuli/bjmedina/global-music-2025-n_80/sequences/isi_16/len120/seq027_len120_s10_isi-1p0_0p0_16p0.json","10.66","true","9we69n2qx77","","2528","https://mcdermottlab.mit.edu/mturk_stimuli/bjmedina/global-music-2025-n_80/mem_stim_20.wav","2","main","","","false","mem_stim_20.wav","false","-1","","1","correct_rejection"
"","","","","","html-keyboard-response","220","533093","0.0-10.0-1.93","https://mcdermottlab.mit.edu/mturk_stimuli/bjmedina/global-music-2025-n_80/sequences/isi_16/len120/seq027_len120_s10_isi-1p0_0p0_16p0.json","10.66","true","9we69n2qx77","","null","<span style=""font-size: 40px"">+</span>","null","","","","","","","","","",""
"","","","","","audio-button-response","221","535417","0.0-10.0-2.93","https://mcdermottlab.mit.edu/mturk_stimuli/bjmedina/global-music-2025-n_80/sequences/isi_16/len120/seq027_len120_s10_isi-1p0_0p0_16p0.json","10.66","true","9we69n2qx77","","2325","https://mcdermottlab.mit.edu/mturk_stimuli/bjmedina/global-music-2025-n_80/mem_stim_20.wav","3","main","","","true","mem_stim_20.wav","true","0","","0","miss"
"","","","","","html-keyboard-response","222","535479","0.0-10.0-1.94","https://mcdermottlab.mit.edu/mturk_stimuli/bjmedina/global-music-2025-n_80/sequences/isi_16/len120/seq027_len120_s10_isi-1p0_0p0_16p0.json","10.66","true","9we69n2qx77","","null","<span style=""font-size: 40px"">+</span>","null","","","","","","","","","",""
"","","","","","audio-button-response","223","538807","0.0-10.0-2.94","https://mcdermottlab.mit.edu/mturk_stimuli/bjmedina/global-music-2025-n_80/sequences/isi_16/len120/seq027_len120_s10_isi-1p0_0p0_16p0.json","10.66","true","9we69n2qx77","","2656","https://mcdermottlab.mit.edu/mturk_stimuli/bjmedina/global-music-2025-n_80/mem_stim_3.wav","0","main","","","false","mem_stim_3.wav","false","-1","","1","correct_rejection"
"","","","","","html-keyboard-response","224","538878","0.0-10.0-1.95","https://mcdermottlab.mit.edu/mturk_stimuli/bjmedina/global-music-2025-n_80/sequences/isi_16/len120/seq027_len120_s10_isi-1p0_0p0_16p0.json","10.66","true","9we69n2qx77","","null","<span style=""font-size: 40px"">+</span>","null","","","","","","","","","",""
"","","","","","audio-button-response","225","542207","0.0-10.0-2.95","https://mcdermottlab.mit.edu/mturk_stimuli/bjmedina/global-music-2025-n_80/sequences/isi_16/len120/seq027_len120_s10_isi-1p0_0p0_16p0.json","10.66","true","9we69n2qx77","","2731","https://mcdermottlab.mit.edu/mturk_stimuli/bjmedina/global-music-2025-n_80/mem_stim_61.wav","1","main","","","false","mem_stim_61.wav","false","-1","","0","false_alarm"
"","","","","","html-keyboard-response","226","542264","0.0-10.0-1.96","https://mcdermottlab.mit.edu/mturk_stimuli/bjmedina/global-music-2025-n_80/sequences/isi_16/len120/seq027_len120_s10_isi-1p0_0p0_16p0.json","10.66","true","9we69n2qx77","","null","<span style=""font-size: 40px"">+</span>","null","","","","","","","","","",""
"","","","","","audio-button-response","227","545535","0.0-10.0-2.96","https://mcdermottlab.mit.edu/mturk_stimuli/bjmedina/global-music-2025-n_80/sequences/isi_16/len120/seq027_len120_s10_isi-1p0_0p0_16p0.json","10.66","true","9we69n2qx77","","2645","https://mcdermottlab.mit.edu/mturk_stimuli/bjmedina/global-music-2025-n_80/mem_stim_48.wav","2","main","","","false","mem_stim_48.wav","false","-1","","1","correct_rejection"
"","","","","","html-keyboard-response","228","545592","0.0-10.0-1.97","https://mcdermottlab.mit.edu/mturk_stimuli/bjmedina/global-music-2025-n_80/sequences/isi_16/len120/seq027_len120_s10_isi-1p0_0p0_16p0.json","10.66","true","9we69n2qx77","","null","<span style=""font-size: 40px"">+</span>","null","","","","","","","","","",""
"","","","","","audio-button-response","229","549017","0.0-10.0-2.97","https://mcdermottlab.mit.edu/mturk_stimuli/bjmedina/global-music-2025-n_80/sequences/isi_16/len120/seq027_len120_s10_isi-1p0_0p0_16p0.json","10.66","true","9we69n2qx77","","3424","https://mcdermottlab.mit.edu/mturk_stimuli/bjmedina/global-music-2025-n_80/mem_stim_73.wav","3","main","","","true","mem_stim_73.wav","false","16","","0","miss"
"","","","","","html-keyboard-response","230","549085","0.0-10.0-1.98","https://mcdermottlab.mit.edu/mturk_stimuli/bjmedina/global-music-2025-n_80/sequences/isi_16/len120/seq027_len120_s10_isi-1p0_0p0_16p0.json","10.66","true","9we69n2qx77","","null","<span style=""font-size: 40px"">+</span>","null","","","","","","","","","",""
"","","","","","audio-button-response","231","552683","0.0-10.0-2.98","https://mcdermottlab.mit.edu/mturk_stimuli/bjmedina/global-music-2025-n_80/sequences/isi_16/len120/seq027_len120_s10_isi-1p0_0p0_16p0.json","10.66","true","9we69n2qx77","","2587","https://mcdermottlab.mit.edu/mturk_stimuli/bjmedina/global-music-2025-n_80/mem_stim_18.wav","1","main","","","false","mem_stim_18.wav","false","-1","","0","false_alarm"
"","","","","","html-keyboard-response","232","552741","0.0-10.0-1.99","https://mcdermottlab.mit.edu/mturk_stimuli/bjmedina/global-music-2025-n_80/sequences/isi_16/len120/seq027_len120_s10_isi-1p0_0p0_16p0.json","10.66","true","9we69n2qx77","","null","<span style=""font-size: 40px"">+</span>","null","","","","","","","","","",""
"","","","","","audio-button-response","233","555943","0.0-10.0-2.99","https://mcdermottlab.mit.edu/mturk_stimuli/bjmedina/global-music-2025-n_80/sequences/isi_16/len120/seq027_len120_s10_isi-1p0_0p0_16p0.json","10.66","true","9we69n2qx77","","2693","https://mcdermottlab.mit.edu/mturk_stimuli/bjmedina/global-music-2025-n_80/mem_stim_42.wav","0","main","","","false","mem_stim_42.wav","false","-1","","1","correct_rejection"
"","","","","","html-keyboard-response","234","556004","0.0-10.0-1.100","https://mcdermottlab.mit.edu/mturk_stimuli/bjmedina/global-music-2025-n_80/sequences/isi_16/len120/seq027_len120_s10_isi-1p0_0p0_16p0.json","10.66","true","9we69n2qx77","","null","<span style=""font-size: 40px"">+</span>","null","","","","","","","","","",""
"","","","","","audio-button-response","235","559602","0.0-10.0-2.100","https://mcdermottlab.mit.edu/mturk_stimuli/bjmedina/global-music-2025-n_80/sequences/isi_16/len120/seq027_len120_s10_isi-1p0_0p0_16p0.json","10.66","true","9we69n2qx77","","3152","https://mcdermottlab.mit.edu/mturk_stimuli/bjmedina/global-music-2025-n_80/mem_stim_26.wav","1","main","","","false","mem_stim_26.wav","false","-1","","0","false_alarm"
"","","","","","html-keyboard-response","236","559665","0.0-10.0-1.101","https://mcdermottlab.mit.edu/mturk_stimuli/bjmedina/global-music-2025-n_80/sequences/isi_16/len120/seq027_len120_s10_isi-1p0_0p0_16p0.json","10.66","true","9we69n2qx77","","null","<span style=""font-size: 40px"">+</span>","null","","","","","","","","","",""
"","","","","","audio-button-response","237","562439","0.0-10.0-2.101","https://mcdermottlab.mit.edu/mturk_stimuli/bjmedina/global-music-2025-n_80/sequences/isi_16/len120/seq027_len120_s10_isi-1p0_0p0_16p0.json","10.66","true","9we69n2qx77","","2768","https://mcdermottlab.mit.edu/mturk_stimuli/bjmedina/global-music-2025-n_80/mem_stim_25.wav","0","main","","","true","mem_stim_25.wav","false","16","","0","miss"
"","","","","","html-keyboard-response","238","562499","0.0-10.0-1.102","https://mcdermottlab.mit.edu/mturk_stimuli/bjmedina/global-music-2025-n_80/sequences/isi_16/len120/seq027_len120_s10_isi-1p0_0p0_16p0.json","10.66","true","9we69n2qx77","","null","<span style=""font-size: 40px"">+</span>","null","","","","","","","","","",""
"","","","","","audio-button-response","239","566269","0.0-10.0-2.102","https://mcdermottlab.mit.edu/mturk_stimuli/bjmedina/global-music-2025-n_80/sequences/isi_16/len120/seq027_len120_s10_isi-1p0_0p0_16p0.json","10.66","true","9we69n2qx77","","2741","https://mcdermottlab.mit.edu/mturk_stimuli/bjmedina/global-music-2025-n_80/mem_stim_60.wav","0","main","","","false","mem_stim_60.wav","false","-1","","1","correct_rejection"
"","","","","","html-keyboard-response","240","566328","0.0-10.0-1.103","https://mcdermottlab.mit.edu/mturk_stimuli/bjmedina/global-music-2025-n_80/sequences/isi_16/len120/seq027_len120_s10_isi-1p0_0p0_16p0.json","10.66","true","9we69n2qx77","","null","<span style=""font-size: 40px"">+</span>","null","","","","","","","","","",""
"","","","","","audio-button-response","241","569389","0.0-10.0-2.103","https://mcdermottlab.mit.edu/mturk_stimuli/bjmedina/global-music-2025-n_80/sequences/isi_16/len120/seq027_len120_s10_isi-1p0_0p0_16p0.json","10.66","true","9we69n2qx77","","3061","https://mcdermottlab.mit.edu/mturk_stimuli/bjmedina/global-music-2025-n_80/mem_stim_60.wav","3","main","","","true","mem_stim_60.wav","true","0","","0","miss"
"","","","","","html-keyboard-response","242","569450","0.0-10.0-1.104","https://mcdermottlab.mit.edu/mturk_stimuli/bjmedina/global-music-2025-n_80/sequences/isi_16/len120/seq027_len120_s10_isi-1p0_0p0_16p0.json","10.66","true","9we69n2qx77","","null","<span style=""font-size: 40px"">+</span>","null","","","","","","","","","",""
"","","","","","audio-button-response","243","572019","0.0-10.0-2.104","https://mcdermottlab.mit.edu/mturk_stimuli/bjmedina/global-music-2025-n_80/sequences/isi_16/len120/seq027_len120_s10_isi-1p0_0p0_16p0.json","10.66","true","9we69n2qx77","","2571","https://mcdermottlab.mit.edu/mturk_stimuli/bjmedina/global-music-2025-n_80/mem_stim_51.wav","3","main","","","true","mem_stim_51.wav","false","16","","0","miss"
"","","","","","html-keyboard-response","244","572081","0.0-10.0-1.105","https://mcdermottlab.mit.edu/mturk_stimuli/bjmedina/global-music-2025-n_80/sequences/isi_16/len120/seq027_len120_s10_isi-1p0_0p0_16p0.json","10.66","true","9we69n2qx77","","null","<span style=""font-size: 40px"">+</span>","null","","","","","","","","","",""
"","","","","","audio-button-response","245","575905","0.0-10.0-2.105","https://mcdermottlab.mit.edu/mturk_stimuli/bjmedina/global-music-2025-n_80/sequences/isi_16/len120/seq027_len120_s10_isi-1p0_0p0_16p0.json","10.66","true","9we69n2qx77","","3120","https://mcdermottlab.mit.edu/mturk_stimuli/bjmedina/global-music-2025-n_80/mem_stim_55.wav","1","main","","","false","mem_stim_55.wav","false","-1","","0","false_alarm"
"","","","","","html-keyboard-response","246","575969","0.0-10.0-1.106","https://mcdermottlab.mit.edu/mturk_stimuli/bjmedina/global-music-2025-n_80/sequences/isi_16/len120/seq027_len120_s10_isi-1p0_0p0_16p0.json","10.66","true","9we69n2qx77","","null","<span style=""font-size: 40px"">+</span>","null","","","","","","","","","",""
"","","","","","audio-button-response","247","578971","0.0-10.0-2.106","https://mcdermottlab.mit.edu/mturk_stimuli/bjmedina/global-music-2025-n_80/sequences/isi_16/len120/seq027_len120_s10_isi-1p0_0p0_16p0.json","10.66","true","9we69n2qx77","","3003","https://mcdermottlab.mit.edu/mturk_stimuli/bjmedina/global-music-2025-n_80/mem_stim_40.wav","2","main","","","true","mem_stim_40.wav","false","16","","0","miss"
"","","","","","html-keyboard-response","248","579035","0.0-10.0-1.107","https://mcdermottlab.mit.edu/mturk_stimuli/bjmedina/global-music-2025-n_80/sequences/isi_16/len120/seq027_len120_s10_isi-1p0_0p0_16p0.json","10.66","true","9we69n2qx77","","null","<span style=""font-size: 40px"">+</span>","null","","","","","","","","","",""
"","","","","","audio-button-response","249","581568","0.0-10.0-2.107","https://mcdermottlab.mit.edu/mturk_stimuli/bjmedina/global-music-2025-n_80/sequences/isi_16/len120/seq027_len120_s10_isi-1p0_0p0_16p0.json","10.66","true","9we69n2qx77","","2533","https://mcdermottlab.mit.edu/mturk_stimuli/bjmedina/global-music-2025-n_80/mem_stim_62.wav","3","main","","","true","mem_stim_62.wav","false","16","","0","miss"
"","","","","","html-keyboard-response","250","581625","0.0-10.0-1.108","https://mcdermottlab.mit.edu/mturk_stimuli/bjmedina/global-music-2025-n_80/sequences/isi_16/len120/seq027_len120_s10_isi-1p0_0p0_16p0.json","10.66","true","9we69n2qx77","","null","<span style=""font-size: 40px"">+</span>","null","","","","","","","","","",""
"","","","","","audio-button-response","251","584408","0.0-10.0-2.108","https://mcdermottlab.mit.edu/mturk_stimuli/bjmedina/global-music-2025-n_80/sequences/isi_16/len120/seq027_len120_s10_isi-1p0_0p0_16p0.json","10.66","true","9we69n2qx77","","2779","https://mcdermottlab.mit.edu/mturk_stimuli/bjmedina/global-music-2025-n_80/mem_stim_68.wav","3","main","","","true","mem_stim_68.wav","false","16","","0","miss"
"","","","","","html-keyboard-response","252","584467","0.0-10.0-1.109","https://mcdermottlab.mit.edu/mturk_stimuli/bjmedina/global-music-2025-n_80/sequences/isi_16/len120/seq027_len120_s10_isi-1p0_0p0_16p0.json","10.66","true","9we69n2qx77","","null","<span style=""font-size: 40px"">+</span>","null","","","","","","","","","",""
"","","","","","audio-button-response","253","587675","0.0-10.0-2.109","https://mcdermottlab.mit.edu/mturk_stimuli/bjmedina/global-music-2025-n_80/sequences/isi_16/len120/seq027_len120_s10_isi-1p0_0p0_16p0.json","10.66","true","9we69n2qx77","","2619","https://mcdermottlab.mit.edu/mturk_stimuli/bjmedina/global-music-2025-n_80/mem_stim_2.wav","2","main","","","false","mem_stim_2.wav","false","-1","","1","correct_rejection"
"","","","","","html-keyboard-response","254","587738","0.0-10.0-1.110","https://mcdermottlab.mit.edu/mturk_stimuli/bjmedina/global-music-2025-n_80/sequences/isi_16/len120/seq027_len120_s10_isi-1p0_0p0_16p0.json","10.66","true","9we69n2qx77","","null","<span style=""font-size: 40px"">+</span>","null","","","","","","","","","",""
"","","","","","audio-button-response","255","591690","0.0-10.0-2.110","https://mcdermottlab.mit.edu/mturk_stimuli/bjmedina/global-music-2025-n_80/sequences/isi_16/len120/seq027_len120_s10_isi-1p0_0p0_16p0.json","10.66","true","9we69n2qx77","","3216","https://mcdermottlab.mit.edu/mturk_stimuli/bjmedina/global-music-2025-n_80/mem_stim_76.wav","1","main","","","false","mem_stim_76.wav","false","-1","","0","false_alarm"
"","","","","","html-keyboard-response","256","591751","0.0-10.0-1.111","https://mcdermottlab.mit.edu/mturk_stimuli/bjmedina/global-music-2025-n_80/sequences/isi_16/len120/seq027_len120_s10_isi-1p0_0p0_16p0.json","10.66","true","9we69n2qx77","","null","<span style=""font-size: 40px"">+</span>","null","","","","","","","","","",""
"","","","","","audio-button-response","257","594534","0.0-10.0-2.111","https://mcdermottlab.mit.edu/mturk_stimuli/bjmedina/global-music-2025-n_80/sequences/isi_16/len120/seq027_len120_s10_isi-1p0_0p0_16p0.json","10.66","true","9we69n2qx77","","2784","https://mcdermottlab.mit.edu/mturk_stimuli/bjmedina/global-music-2025-n_80/mem_stim_3.wav","1","main","","","true","mem_stim_3.wav","false","16","","1","hit"
"","","","","","html-keyboard-response","258","594590","0.0-10.0-1.112","https://mcdermottlab.mit.edu/mturk_stimuli/bjmedina/global-music-2025-n_80/sequences/isi_16/len120/seq027_len120_s10_isi-1p0_0p0_16p0.json","10.66","true","9we69n2qx77","","null","<span style=""font-size: 40px"">+</span>","null","","","","","","","","","",""
"","","","","","audio-button-response","259","597587","0.0-10.0-2.112","https://mcdermottlab.mit.edu/mturk_stimuli/bjmedina/global-music-2025-n_80/sequences/isi_16/len120/seq027_len120_s10_isi-1p0_0p0_16p0.json","10.66","true","9we69n2qx77","","2992","https://mcdermottlab.mit.edu/mturk_stimuli/bjmedina/global-music-2025-n_80/mem_stim_61.wav","0","main","","","true","mem_stim_61.wav","false","16","","0","miss"
"","","","","","html-keyboard-response","260","597645","0.0-10.0-1.113","https://mcdermottlab.mit.edu/mturk_stimuli/bjmedina/global-music-2025-n_80/sequences/isi_16/len120/seq027_len120_s10_isi-1p0_0p0_16p0.json","10.66","true","9we69n2qx77","","null","<span style=""font-size: 40px"">+</span>","null","","","","","","","","","",""
"","","","","","audio-button-response","261","600770","0.0-10.0-2.113","https://mcdermottlab.mit.edu/mturk_stimuli/bjmedina/global-music-2025-n_80/sequences/isi_16/len120/seq027_len120_s10_isi-1p0_0p0_16p0.json","10.66","true","9we69n2qx77","","3120","https://mcdermottlab.mit.edu/mturk_stimuli/bjmedina/global-music-2025-n_80/mem_stim_48.wav","3","main","","","true","mem_stim_48.wav","false","16","","0","miss"
"","","","","","html-keyboard-response","262","600828","0.0-10.0-1.114","https://mcdermottlab.mit.edu/mturk_stimuli/bjmedina/global-music-2025-n_80/sequences/isi_16/len120/seq027_len120_s10_isi-1p0_0p0_16p0.json","10.66","true","9we69n2qx77","","null","<span style=""font-size: 40px"">+</span>","null","","","","","","","","","",""
"","","","","","audio-button-response","263","604718","0.0-10.0-2.114","https://mcdermottlab.mit.edu/mturk_stimuli/bjmedina/global-music-2025-n_80/sequences/isi_16/len120/seq027_len120_s10_isi-1p0_0p0_16p0.json","10.66","true","9we69n2qx77","","3355","https://mcdermottlab.mit.edu/mturk_stimuli/bjmedina/global-music-2025-n_80/mem_stim_58.wav","0","main","","","false","mem_stim_58.wav","false","-1","","1","correct_rejection"
"","","","","","html-keyboard-response","264","604776","0.0-10.0-1.115","https://mcdermottlab.mit.edu/mturk_stimuli/bjmedina/global-music-2025-n_80/sequences/isi_16/len120/seq027_len120_s10_isi-1p0_0p0_16p0.json","10.66","true","9we69n2qx77","","null","<span style=""font-size: 40px"">+</span>","null","","","","","","","","","",""
"","","","","","audio-button-response","265","608235","0.0-10.0-2.115","https://mcdermottlab.mit.edu/mturk_stimuli/bjmedina/global-music-2025-n_80/sequences/isi_16/len120/seq027_len120_s10_isi-1p0_0p0_16p0.json","10.66","true","9we69n2qx77","","2853","https://mcdermottlab.mit.edu/mturk_stimuli/bjmedina/global-music-2025-n_80/mem_stim_19.wav","0","main","","","false","mem_stim_19.wav","false","-1","","1","correct_rejection"
