"success","timeout","failed_images","failed_audio","failed_video","trial_type","trial_index","time_elapsed","internal_node_id","sequence_file","pay","passed_hc","completion_code","view_history","rt","stimulus","response","stim_type","hc_answer","correct_hc","repeat","yt_id","catch","isi","type","is_correct","response_type"
"true","false","[]","[]","[]","preload","0","252","0.0-0.0","https://mcdermottlab.mit.edu/mturk_stimuli/bjmedina/mem_exp_ind-nature_2025/sequences/isi_16/len120/seq057_len120_s15_isi-1p0_0p0_16p0.json","10.72","true","5b7pydsdq6g","","","","","","","","","","","","","",""
"","","","","","instructions","1","4486","0.0-1.0","https://mcdermottlab.mit.edu/mturk_stimuli/bjmedina/mem_exp_ind-nature_2025/sequences/isi_16/len120/seq057_len120_s15_isi-1p0_0p0_16p0.json","10.72","true","5b7pydsdq6g","[{""page_index"":0,""viewing_time"":4233}]","4233","","","","","","","","","","","",""
"","","","","","instructions","2","22275","0.0-2.0","https://mcdermottlab.mit.edu/mturk_stimuli/bjmedina/mem_exp_ind-nature_2025/sequences/isi_16/len120/seq057_len120_s15_isi-1p0_0p0_16p0.json","10.72","true","5b7pydsdq6g","[{""page_index"":0,""viewing_time"":17788}]","17788","","","","","","","","","","","",""
"","","","","","audio-button-response","3","50476","0.0-3.0-0.0","https://mcdermottlab.mit.edu/mturk_stimuli/bjmedina/mem_exp_ind-nature_2025/sequences/isi_16/len120/seq057_len120_s15_isi-1p0_0p0_16p0.json","10.72","true","5b7pydsdq6g","","28112","https://mcdermottlab.mit.edu/bjmedina/experiments/mem_exp_v01/assets/noise_calib_stim.wav","0","","","","","","","","","",""
"","","","","","audio-button-response","4","62912","0.0-3.1-0.1","https://mcdermottlab.mit.edu/mturk_stimuli/bjmedina/mem_exp_ind-nature_2025/sequences/isi_16/len120/seq057_len120_s15_isi-1p0_0p0_16p0.json","10.72","true","5b7pydsdq6g","","12421","https://mcdermottlab.mit.edu/bjmedina/experiments/mem_exp_v01/assets/noise_calib_stim.wav","0","","","","","","","","","",""
"","","","","","audio-button-response","5","68578","0.0-3.2-0.2","https://mcdermottlab.mit.edu/mturk_stimuli/bjmedina/mem_exp_ind-nature_2025/sequences/isi_16/len120/seq057_len120_s15_isi-1p0_0p0_16p0.json","10.72","true","5b7pydsdq6g","","5659","https://mcdermottlab.mit.edu/bjmedina/experiments/mem_exp_v01/assets/noise_calib_stim.wav","1","","","","","","","","","",""
"","","","","","instructions","6","197227","0.0-4.0","https://mcdermottlab.mit.edu/mturk_stimuli/bjmedina/mem_exp_ind-nature_2025/sequences/isi_16/len120/seq057_len120_s15_isi-1p0_0p0_16p0.json","10.72","true","5b7pydsdq6g","[{""page_index"":0,""viewing_time"":128647}]","128648","","","","","","","","","","","",""
"","","","","","audio-button-response","7","204508","0.0-5.0-0.0","https://mcdermottlab.mit.edu/mturk_stimuli/bjmedina/mem_exp_ind-nature_2025/sequences/isi_16/len120/seq057_len120_s15_isi-1p0_0p0_16p0.json","10.72","true","5b7pydsdq6g","","6509","https://mcdermottlab.mit.edu/bjmedina/experiments/mem_exp_v01/assets/antiphase_HC_SOI.wav","0","hc","1","1","","","","","","",""
"","","","","","audio-button-response","8","209686","0.0-5.0-0.1","https://mcdermottlab.mit.edu/mturk_stimuli/bjmedina/mem_exp_ind-nature_2025/sequences/isi_16/len120/seq057_len120_s15_isi-1p0_0p0_16p0.json","10.72","true","5b7pydsdq6g","","4451","https://mcdermottlab.mit.edu/bjmedina/experiments/mem_exp_v01/assets/antiphase_HC_OIS.wav","2","hc","3","1","","","","","","",""
"","","","","","audio-button-response","9","214633","0.0-5.0-0.2","https://mcdermottlab.mit.edu/mturk_stimuli/bjmedina/mem_exp_ind-nature_2025/sequences/isi_16/len120/seq057_len120_s15_isi-1p0_0p0_16p0.json","10.72","true","5b7pydsdq6g","","4400","https://mcdermottlab.mit.edu/bjmedina/experiments/mem_exp_v01/assets/antiphase_HC_SIO.wav","0","hc","1","1","","","","","","",""
"","","","","","audio-button-response","10","220902","0.0-5.0-0.3","https://mcdermottlab.mit.edu/mturk_stimuli/bjmedina/mem_exp_ind-nature_2025/sequences/isi_16/len120/seq057_len120_s15_isi-1p0_0p0_16p0.json","10.72","true","5b7pydsdq6g","","4840","https://mcdermottlab.mit.edu/bjmedina/experiments/mem_exp_v01/assets/antiphase_HC_ISO.wav","1","hc","2","1","","","","","","",""
"","","","","","audio-button-response","11","226133","0.0-5.0-0.4","https://mcdermottlab.mit.edu/mturk_stimuli/bjmedina/mem_exp_ind-nature_2025/sequences/isi_16/len120/seq057_len120_s15_isi-1p0_0p0_16p0.json","10.72","true","5b7pydsdq6g","","4491","https://mcdermottlab.mit.edu/bjmedina/experiments/mem_exp_v01/assets/antiphase_HC_OSI.wav","1","hc","2","1","","","","","","",""
"","","","","","audio-button-response","12","231051","0.0-5.0-0.5","https://mcdermottlab.mit.edu/mturk_stimuli/bjmedina/mem_exp_ind-nature_2025/sequences/isi_16/len120/seq057_len120_s15_isi-1p0_0p0_16p0.json","10.72","true","5b7pydsdq6g","","4381","https://mcdermottlab.mit.edu/bjmedina/experiments/mem_exp_v01/assets/antiphase_HC_IOS.wav","2","hc","3","1","","","","","","",""
"","","","","","html-keyboard-response","13","234113","0.0-6.0","https://mcdermottlab.mit.edu/mturk_stimuli/bjmedina/mem_exp_ind-nature_2025/sequences/isi_16/len120/seq057_len120_s15_isi-1p0_0p0_16p0.json","10.72","true","5b7pydsdq6g","","3060","<h1>You have finished the LOUDNESS task!</h1> <p>Press space to continue</p>"," ","","","","","","","","","",""
"","","","","","instructions","14","309317","0.0-7.0","https://mcdermottlab.mit.edu/mturk_stimuli/bjmedina/mem_exp_ind-nature_2025/sequences/isi_16/len120/seq057_len120_s15_isi-1p0_0p0_16p0.json","10.72","true","5b7pydsdq6g","[{""page_index"":0,""viewing_time"":6539},{""page_index"":1,""viewing_time"":16968},{""page_index"":2,""viewing_time"":43514},{""page_index"":3,""viewing_time"":8182}]","75203","","","","","","","","","","","",""
"","","","","","html-keyboard-response","15","309370","0.0-8.0-0.0","https://mcdermottlab.mit.edu/mturk_stimuli/bjmedina/mem_exp_ind-nature_2025/sequences/isi_16/len120/seq057_len120_s15_isi-1p0_0p0_16p0.json","10.72","true","5b7pydsdq6g","","null","<span style=""font-size: 40px"">+</span>","null","fixation","","","","","","","","",""
"","","","","","audio-button-response","16","322780","0.0-8.0-1.0","https://mcdermottlab.mit.edu/mturk_stimuli/bjmedina/mem_exp_ind-nature_2025/sequences/isi_16/len120/seq057_len120_s15_isi-1p0_0p0_16p0.json","10.72","true","5b7pydsdq6g","","12491","https://mcdermottlab.mit.edu/mturk_stimuli/bjmedina/mem_exp_v05/mem_stim_1023_f32.wav","0","demo","","","0","","","","","",""
"","","","","","html-keyboard-response","17","322833","0.0-8.0-0.1","https://mcdermottlab.mit.edu/mturk_stimuli/bjmedina/mem_exp_ind-nature_2025/sequences/isi_16/len120/seq057_len120_s15_isi-1p0_0p0_16p0.json","10.72","true","5b7pydsdq6g","","null","<span style=""font-size: 40px"">+</span>","null","fixation","","","","","","","","",""
"","","","","","audio-button-response","18","329787","0.0-8.0-1.1","https://mcdermottlab.mit.edu/mturk_stimuli/bjmedina/mem_exp_ind-nature_2025/sequences/isi_16/len120/seq057_len120_s15_isi-1p0_0p0_16p0.json","10.72","true","5b7pydsdq6g","","6099","https://mcdermottlab.mit.edu/mturk_stimuli/bjmedina/mem_exp_v05/mem_stim_1022_f32.wav","2","demo","","","0","","","","","",""
"","","","","","html-keyboard-response","19","329849","0.0-8.0-0.2","https://mcdermottlab.mit.edu/mturk_stimuli/bjmedina/mem_exp_ind-nature_2025/sequences/isi_16/len120/seq057_len120_s15_isi-1p0_0p0_16p0.json","10.72","true","5b7pydsdq6g","","null","<span style=""font-size: 40px"">+</span>","null","fixation","","","","","","","","",""
"","","","","","audio-button-response","20","332659","0.0-8.0-1.2","https://mcdermottlab.mit.edu/mturk_stimuli/bjmedina/mem_exp_ind-nature_2025/sequences/isi_16/len120/seq057_len120_s15_isi-1p0_0p0_16p0.json","10.72","true","5b7pydsdq6g","","2811","https://mcdermottlab.mit.edu/mturk_stimuli/bjmedina/mem_exp_v05/mem_stim_1022_f32.wav","2","demo","","","1","","","","","",""
"","","","","","html-keyboard-response","21","332714","0.0-8.0-0.3","https://mcdermottlab.mit.edu/mturk_stimuli/bjmedina/mem_exp_ind-nature_2025/sequences/isi_16/len120/seq057_len120_s15_isi-1p0_0p0_16p0.json","10.72","true","5b7pydsdq6g","","null","<span style=""font-size: 40px"">+</span>","null","fixation","","","","","","","","",""
"","","","","","audio-button-response","22","337169","0.0-8.0-1.3","https://mcdermottlab.mit.edu/mturk_stimuli/bjmedina/mem_exp_ind-nature_2025/sequences/isi_16/len120/seq057_len120_s15_isi-1p0_0p0_16p0.json","10.72","true","5b7pydsdq6g","","3611","https://mcdermottlab.mit.edu/mturk_stimuli/bjmedina/mem_exp_v05/mem_stim_1021_f32.wav","1","demo","","","0","","","","","",""
"","","","","","html-keyboard-response","23","337234","0.0-8.0-0.4","https://mcdermottlab.mit.edu/mturk_stimuli/bjmedina/mem_exp_ind-nature_2025/sequences/isi_16/len120/seq057_len120_s15_isi-1p0_0p0_16p0.json","10.72","true","5b7pydsdq6g","","null","<span style=""font-size: 40px"">+</span>","null","fixation","","","","","","","","",""
"","","","","","audio-button-response","24","341949","0.0-8.0-1.4","https://mcdermottlab.mit.edu/mturk_stimuli/bjmedina/mem_exp_ind-nature_2025/sequences/isi_16/len120/seq057_len120_s15_isi-1p0_0p0_16p0.json","10.72","true","5b7pydsdq6g","","4720","https://mcdermottlab.mit.edu/mturk_stimuli/bjmedina/mem_exp_v05/mem_stim_1023_f32.wav","1","demo","","","1","","","","","",""
"","","","","","html-keyboard-response","25","342003","0.0-8.0-0.5","https://mcdermottlab.mit.edu/mturk_stimuli/bjmedina/mem_exp_ind-nature_2025/sequences/isi_16/len120/seq057_len120_s15_isi-1p0_0p0_16p0.json","10.72","true","5b7pydsdq6g","","null","<span style=""font-size: 40px"">+</span>","null","fixation","","","","","","","","",""
"","","","","","audio-button-response","26","345548","0.0-8.0-1.5","https://mcdermottlab.mit.edu/mturk_stimuli/bjmedina/mem_exp_ind-nature_2025/sequences/isi_16/len120/seq057_len120_s15_isi-1p0_0p0_16p0.json","10.72","true","5b7pydsdq6g","","2819","https://mcdermottlab.mit.edu/mturk_stimuli/bjmedina/mem_exp_v05/mem_stim_1020_f32.wav","0","demo","","","0","","","","","",""
"","","","","","html-keyboard-response","27","345601","0.0-8.0-0.6","https://mcdermottlab.mit.edu/mturk_stimuli/bjmedina/mem_exp_ind-nature_2025/sequences/isi_16/len120/seq057_len120_s15_isi-1p0_0p0_16p0.json","10.72","true","5b7pydsdq6g","","null","<span style=""font-size: 40px"">+</span>","null","fixation","","","","","","","","",""
"","","","","","audio-button-response","28","349005","0.0-8.0-1.6","https://mcdermottlab.mit.edu/mturk_stimuli/bjmedina/mem_exp_ind-nature_2025/sequences/isi_16/len120/seq057_len120_s15_isi-1p0_0p0_16p0.json","10.72","true","5b7pydsdq6g","","2771","https://mcdermottlab.mit.edu/mturk_stimuli/bjmedina/mem_exp_v05/mem_stim_1019_f32.wav","0","demo","","","0","","","","","",""
"","","","","","html-keyboard-response","29","349065","0.0-8.0-0.7","https://mcdermottlab.mit.edu/mturk_stimuli/bjmedina/mem_exp_ind-nature_2025/sequences/isi_16/len120/seq057_len120_s15_isi-1p0_0p0_16p0.json","10.72","true","5b7pydsdq6g","","null","<span style=""font-size: 40px"">+</span>","null","fixation","","","","","","","","",""
"","","","","","audio-button-response","30","353032","0.0-8.0-1.7","https://mcdermottlab.mit.edu/mturk_stimuli/bjmedina/mem_exp_ind-nature_2025/sequences/isi_16/len120/seq057_len120_s15_isi-1p0_0p0_16p0.json","10.72","true","5b7pydsdq6g","","3960","https://mcdermottlab.mit.edu/mturk_stimuli/bjmedina/mem_exp_v05/mem_stim_1021_f32.wav","2","demo","","","1","","","","","",""
"","","","","","html-keyboard-response","31","356023","0.0-9.0","https://mcdermottlab.mit.edu/mturk_stimuli/bjmedina/mem_exp_ind-nature_2025/sequences/isi_16/len120/seq057_len120_s15_isi-1p0_0p0_16p0.json","10.72","true","5b7pydsdq6g","","2991","<p>You are now ready to start the experiment. Press SPACE when you are ready to start.</p>"," ","","","","","","","","","",""
"","","","","","html-keyboard-response","32","356118","0.0-10.0-1.0","https://mcdermottlab.mit.edu/mturk_stimuli/bjmedina/mem_exp_ind-nature_2025/sequences/isi_16/len120/seq057_len120_s15_isi-1p0_0p0_16p0.json","10.72","true","5b7pydsdq6g","","null","<span style=""font-size: 40px"">+</span>","null","","","","","","","","","",""
"","","","","","audio-button-response","33","363817","0.0-10.0-2.0","https://mcdermottlab.mit.edu/mturk_stimuli/bjmedina/mem_exp_ind-nature_2025/sequences/isi_16/len120/seq057_len120_s15_isi-1p0_0p0_16p0.json","10.72","true","5b7pydsdq6g","","6392","https://mcdermottlab.mit.edu/mturk_stimuli/bjmedina/mem_exp_ind-nature_2025/mem_stim_49.wav","0","main","","","false","mem_stim_49.wav","false","-1","","1","correct_rejection"
"","","","","","html-keyboard-response","34","363914","0.0-10.0-1.1","https://mcdermottlab.mit.edu/mturk_stimuli/bjmedina/mem_exp_ind-nature_2025/sequences/isi_16/len120/seq057_len120_s15_isi-1p0_0p0_16p0.json","10.72","true","5b7pydsdq6g","","null","<span style=""font-size: 40px"">+</span>","null","","","","","","","","","",""
"","","","","","audio-button-response","35","366446","0.0-10.0-2.1","https://mcdermottlab.mit.edu/mturk_stimuli/bjmedina/mem_exp_ind-nature_2025/sequences/isi_16/len120/seq057_len120_s15_isi-1p0_0p0_16p0.json","10.72","true","5b7pydsdq6g","","2531","https://mcdermottlab.mit.edu/mturk_stimuli/bjmedina/mem_exp_ind-nature_2025/mem_stim_49.wav","3","main","","","true","mem_stim_49.wav","true","0","","0","miss"
"","","","","","html-keyboard-response","36","366515","0.0-10.0-1.2","https://mcdermottlab.mit.edu/mturk_stimuli/bjmedina/mem_exp_ind-nature_2025/sequences/isi_16/len120/seq057_len120_s15_isi-1p0_0p0_16p0.json","10.72","true","5b7pydsdq6g","","null","<span style=""font-size: 40px"">+</span>","null","","","","","","","","","",""
"","","","","","audio-button-response","37","371536","0.0-10.0-2.2","https://mcdermottlab.mit.edu/mturk_stimuli/bjmedina/mem_exp_ind-nature_2025/sequences/isi_16/len120/seq057_len120_s15_isi-1p0_0p0_16p0.json","10.72","true","5b7pydsdq6g","","4461","https://mcdermottlab.mit.edu/mturk_stimuli/bjmedina/mem_exp_ind-nature_2025/mem_stim_79.wav","0","main","","","false","mem_stim_79.wav","false","-1","","1","correct_rejection"
"","","","","","html-keyboard-response","38","371602","0.0-10.0-1.3","https://mcdermottlab.mit.edu/mturk_stimuli/bjmedina/mem_exp_ind-nature_2025/sequences/isi_16/len120/seq057_len120_s15_isi-1p0_0p0_16p0.json","10.72","true","5b7pydsdq6g","","null","<span style=""font-size: 40px"">+</span>","null","","","","","","","","","",""
"","","","","","audio-button-response","39","377059","0.0-10.0-2.3","https://mcdermottlab.mit.edu/mturk_stimuli/bjmedina/mem_exp_ind-nature_2025/sequences/isi_16/len120/seq057_len120_s15_isi-1p0_0p0_16p0.json","10.72","true","5b7pydsdq6g","","4720","https://mcdermottlab.mit.edu/mturk_stimuli/bjmedina/mem_exp_ind-nature_2025/mem_stim_12.wav","1","main","","","false","mem_stim_12.wav","false","-1","","0","false_alarm"
"","","","","","html-keyboard-response","40","377118","0.0-10.0-1.4","https://mcdermottlab.mit.edu/mturk_stimuli/bjmedina/mem_exp_ind-nature_2025/sequences/isi_16/len120/seq057_len120_s15_isi-1p0_0p0_16p0.json","10.72","true","5b7pydsdq6g","","null","<span style=""font-size: 40px"">+</span>","null","","","","","","","","","",""
"","","","","","audio-button-response","41","388709","0.0-10.0-2.4","https://mcdermottlab.mit.edu/mturk_stimuli/bjmedina/mem_exp_ind-nature_2025/sequences/isi_16/len120/seq057_len120_s15_isi-1p0_0p0_16p0.json","10.72","true","5b7pydsdq6g","","10960","https://mcdermottlab.mit.edu/mturk_stimuli/bjmedina/mem_exp_ind-nature_2025/mem_stim_11.wav","0","main","","","false","mem_stim_11.wav","false","-1","","1","correct_rejection"
"","","","","","html-keyboard-response","42","388785","0.0-10.0-1.5","https://mcdermottlab.mit.edu/mturk_stimuli/bjmedina/mem_exp_ind-nature_2025/sequences/isi_16/len120/seq057_len120_s15_isi-1p0_0p0_16p0.json","10.72","true","5b7pydsdq6g","","null","<span style=""font-size: 40px"">+</span>","null","","","","","","","","","",""
"","","","","","audio-button-response","43","392039","0.0-10.0-2.5","https://mcdermottlab.mit.edu/mturk_stimuli/bjmedina/mem_exp_ind-nature_2025/sequences/isi_16/len120/seq057_len120_s15_isi-1p0_0p0_16p0.json","10.72","true","5b7pydsdq6g","","2629","https://mcdermottlab.mit.edu/mturk_stimuli/bjmedina/mem_exp_ind-nature_2025/mem_stim_20.wav","0","main","","","false","mem_stim_20.wav","false","-1","","1","correct_rejection"
"","","","","","html-keyboard-response","44","392103","0.0-10.0-1.6","https://mcdermottlab.mit.edu/mturk_stimuli/bjmedina/mem_exp_ind-nature_2025/sequences/isi_16/len120/seq057_len120_s15_isi-1p0_0p0_16p0.json","10.72","true","5b7pydsdq6g","","null","<span style=""font-size: 40px"">+</span>","null","","","","","","","","","",""
"","","","","","audio-button-response","45","396676","0.0-10.0-2.6","https://mcdermottlab.mit.edu/mturk_stimuli/bjmedina/mem_exp_ind-nature_2025/sequences/isi_16/len120/seq057_len120_s15_isi-1p0_0p0_16p0.json","10.72","true","5b7pydsdq6g","","3840","https://mcdermottlab.mit.edu/mturk_stimuli/bjmedina/mem_exp_ind-nature_2025/mem_stim_34.wav","1","main","","","false","mem_stim_34.wav","false","-1","","0","false_alarm"
"","","","","","html-keyboard-response","46","396752","0.0-10.0-1.7","https://mcdermottlab.mit.edu/mturk_stimuli/bjmedina/mem_exp_ind-nature_2025/sequences/isi_16/len120/seq057_len120_s15_isi-1p0_0p0_16p0.json","10.72","true","5b7pydsdq6g","","null","<span style=""font-size: 40px"">+</span>","null","","","","","","","","","",""
"","","","","","audio-button-response","47","401051","0.0-10.0-2.7","https://mcdermottlab.mit.edu/mturk_stimuli/bjmedina/mem_exp_ind-nature_2025/sequences/isi_16/len120/seq057_len120_s15_isi-1p0_0p0_16p0.json","10.72","true","5b7pydsdq6g","","3781","https://mcdermottlab.mit.edu/mturk_stimuli/bjmedina/mem_exp_ind-nature_2025/mem_stim_75.wav","2","main","","","false","mem_stim_75.wav","false","-1","","1","correct_rejection"
"","","","","","html-keyboard-response","48","401116","0.0-10.0-1.8","https://mcdermottlab.mit.edu/mturk_stimuli/bjmedina/mem_exp_ind-nature_2025/sequences/isi_16/len120/seq057_len120_s15_isi-1p0_0p0_16p0.json","10.72","true","5b7pydsdq6g","","null","<span style=""font-size: 40px"">+</span>","null","","","","","","","","","",""
"","","","","","audio-button-response","49","404527","0.0-10.0-2.8","https://mcdermottlab.mit.edu/mturk_stimuli/bjmedina/mem_exp_ind-nature_2025/sequences/isi_16/len120/seq057_len120_s15_isi-1p0_0p0_16p0.json","10.72","true","5b7pydsdq6g","","2891","https://mcdermottlab.mit.edu/mturk_stimuli/bjmedina/mem_exp_ind-nature_2025/mem_stim_22.wav","1","main","","","false","mem_stim_22.wav","false","-1","","0","false_alarm"
"","","","","","html-keyboard-response","50","404602","0.0-10.0-1.9","https://mcdermottlab.mit.edu/mturk_stimuli/bjmedina/mem_exp_ind-nature_2025/sequences/isi_16/len120/seq057_len120_s15_isi-1p0_0p0_16p0.json","10.72","true","5b7pydsdq6g","","null","<span style=""font-size: 40px"">+</span>","null","","","","","","","","","",""
"","","","","","audio-button-response","51","408019","0.0-10.0-2.9","https://mcdermottlab.mit.edu/mturk_stimuli/bjmedina/mem_exp_ind-nature_2025/sequences/isi_16/len120/seq057_len120_s15_isi-1p0_0p0_16p0.json","10.72","true","5b7pydsdq6g","","2800","https://mcdermottlab.mit.edu/mturk_stimuli/bjmedina/mem_exp_ind-nature_2025/mem_stim_30.wav","1","main","","","false","mem_stim_30.wav","false","-1","","0","false_alarm"
"","","","","","html-keyboard-response","52","408083","0.0-10.0-1.10","https://mcdermottlab.mit.edu/mturk_stimuli/bjmedina/mem_exp_ind-nature_2025/sequences/isi_16/len120/seq057_len120_s15_isi-1p0_0p0_16p0.json","10.72","true","5b7pydsdq6g","","null","<span style=""font-size: 40px"">+</span>","null","","","","","","","","","",""
"","","","","","audio-button-response","53","410997","0.0-10.0-2.10","https://mcdermottlab.mit.edu/mturk_stimuli/bjmedina/mem_exp_ind-nature_2025/sequences/isi_16/len120/seq057_len120_s15_isi-1p0_0p0_16p0.json","10.72","true","5b7pydsdq6g","","2600","https://mcdermottlab.mit.edu/mturk_stimuli/bjmedina/mem_exp_ind-nature_2025/mem_stim_24.wav","1","main","","","false","mem_stim_24.wav","false","-1","","0","false_alarm"
"","","","","","html-keyboard-response","54","411068","0.0-10.0-1.11","https://mcdermottlab.mit.edu/mturk_stimuli/bjmedina/mem_exp_ind-nature_2025/sequences/isi_16/len120/seq057_len120_s15_isi-1p0_0p0_16p0.json","10.72","true","5b7pydsdq6g","","null","<span style=""font-size: 40px"">+</span>","null","","","","","","","","","",""
"","","","","","audio-button-response","55","414779","0.0-10.0-2.11","https://mcdermottlab.mit.edu/mturk_stimuli/bjmedina/mem_exp_ind-nature_2025/sequences/isi_16/len120/seq057_len120_s15_isi-1p0_0p0_16p0.json","10.72","true","5b7pydsdq6g","","3291","https://mcdermottlab.mit.edu/mturk_stimuli/bjmedina/mem_exp_ind-nature_2025/mem_stim_67.wav","2","main","","","false","mem_stim_67.wav","false","-1","","1","correct_rejection"
"","","","","","html-keyboard-response","56","414851","0.0-10.0-1.12","https://mcdermottlab.mit.edu/mturk_stimuli/bjmedina/mem_exp_ind-nature_2025/sequences/isi_16/len120/seq057_len120_s15_isi-1p0_0p0_16p0.json","10.72","true","5b7pydsdq6g","","null","<span style=""font-size: 40px"">+</span>","null","","","","","","","","","",""
"","","","","","audio-button-response","57","418943","0.0-10.0-2.12","https://mcdermottlab.mit.edu/mturk_stimuli/bjmedina/mem_exp_ind-nature_2025/sequences/isi_16/len120/seq057_len120_s15_isi-1p0_0p0_16p0.json","10.72","true","5b7pydsdq6g","","3632","https://mcdermottlab.mit.edu/mturk_stimuli/bjmedina/mem_exp_ind-nature_2025/mem_stim_78.wav","1","main","","","false","mem_stim_78.wav","false","-1","","0","false_alarm"
"","","","","","html-keyboard-response","58","419018","0.0-10.0-1.13","https://mcdermottlab.mit.edu/mturk_stimuli/bjmedina/mem_exp_ind-nature_2025/sequences/isi_16/len120/seq057_len120_s15_isi-1p0_0p0_16p0.json","10.72","true","5b7pydsdq6g","","null","<span style=""font-size: 40px"">+</span>","null","","","","","","","","","",""
"","","","","","audio-button-response","59","421901","0.0-10.0-2.13","https://mcdermottlab.mit.edu/mturk_stimuli/bjmedina/mem_exp_ind-nature_2025/sequences/isi_16/len120/seq057_len120_s15_isi-1p0_0p0_16p0.json","10.72","true","5b7pydsdq6g","","2560","https://mcdermottlab.mit.edu/mturk_stimuli/bjmedina/mem_exp_ind-nature_2025/mem_stim_1.wav","0","main","","","false","mem_stim_1.wav","false","-1","","1","correct_rejection"
"","","","","","html-keyboard-response","60","421974","0.0-10.0-1.14","https://mcdermottlab.mit.edu/mturk_stimuli/bjmedina/mem_exp_ind-nature_2025/sequences/isi_16/len120/seq057_len120_s15_isi-1p0_0p0_16p0.json","10.72","true","5b7pydsdq6g","","null","<span style=""font-size: 40px"">+</span>","null","","","","","","","","","",""
"","","","","","audio-button-response","61","425921","0.0-10.0-2.14","https://mcdermottlab.mit.edu/mturk_stimuli/bjmedina/mem_exp_ind-nature_2025/sequences/isi_16/len120/seq057_len120_s15_isi-1p0_0p0_16p0.json","10.72","true","5b7pydsdq6g","","3211","https://mcdermottlab.mit.edu/mturk_stimuli/bjmedina/mem_exp_ind-nature_2025/mem_stim_36.wav","0","main","","","false","mem_stim_36.wav","false","-1","","1","correct_rejection"
"","","","","","html-keyboard-response","62","425983","0.0-10.0-1.15","https://mcdermottlab.mit.edu/mturk_stimuli/bjmedina/mem_exp_ind-nature_2025/sequences/isi_16/len120/seq057_len120_s15_isi-1p0_0p0_16p0.json","10.72","true","5b7pydsdq6g","","null","<span style=""font-size: 40px"">+</span>","null","","","","","","","","","",""
"","","","","","audio-button-response","63","429747","0.0-10.0-2.15","https://mcdermottlab.mit.edu/mturk_stimuli/bjmedina/mem_exp_ind-nature_2025/sequences/isi_16/len120/seq057_len120_s15_isi-1p0_0p0_16p0.json","10.72","true","5b7pydsdq6g","","3229","https://mcdermottlab.mit.edu/mturk_stimuli/bjmedina/mem_exp_ind-nature_2025/mem_stim_18.wav","0","main","","","false","mem_stim_18.wav","false","-1","","1","correct_rejection"
"","","","","","html-keyboard-response","64","429819","0.0-10.0-1.16","https://mcdermottlab.mit.edu/mturk_stimuli/bjmedina/mem_exp_ind-nature_2025/sequences/isi_16/len120/seq057_len120_s15_isi-1p0_0p0_16p0.json","10.72","true","5b7pydsdq6g","","null","<span style=""font-size: 40px"">+</span>","null","","","","","","","","","",""
"","","","","","audio-button-response","65","433059","0.0-10.0-2.16","https://mcdermottlab.mit.edu/mturk_stimuli/bjmedina/mem_exp_ind-nature_2025/sequences/isi_16/len120/seq057_len120_s15_isi-1p0_0p0_16p0.json","10.72","true","5b7pydsdq6g","","2832","https://mcdermottlab.mit.edu/mturk_stimuli/bjmedina/mem_exp_ind-nature_2025/mem_stim_51.wav","0","main","","","false","mem_stim_51.wav","false","-1","","1","correct_rejection"
"","","","","","html-keyboard-response","66","433134","0.0-10.0-1.17","https://mcdermottlab.mit.edu/mturk_stimuli/bjmedina/mem_exp_ind-nature_2025/sequences/isi_16/len120/seq057_len120_s15_isi-1p0_0p0_16p0.json","10.72","true","5b7pydsdq6g","","null","<span style=""font-size: 40px"">+</span>","null","","","","","","","","","",""
"","","","","","audio-button-response","67","437457","0.0-10.0-2.17","https://mcdermottlab.mit.edu/mturk_stimuli/bjmedina/mem_exp_ind-nature_2025/sequences/isi_16/len120/seq057_len120_s15_isi-1p0_0p0_16p0.json","10.72","true","5b7pydsdq6g","","3600","https://mcdermottlab.mit.edu/mturk_stimuli/bjmedina/mem_exp_ind-nature_2025/mem_stim_54.wav","1","main","","","false","mem_stim_54.wav","false","-1","","0","false_alarm"
"","","","","","html-keyboard-response","68","437534","0.0-10.0-1.18","https://mcdermottlab.mit.edu/mturk_stimuli/bjmedina/mem_exp_ind-nature_2025/sequences/isi_16/len120/seq057_len120_s15_isi-1p0_0p0_16p0.json","10.72","true","5b7pydsdq6g","","null","<span style=""font-size: 40px"">+</span>","null","","","","","","","","","",""
"","","","","","audio-button-response","69","440888","0.0-10.0-2.18","https://mcdermottlab.mit.edu/mturk_stimuli/bjmedina/mem_exp_ind-nature_2025/sequences/isi_16/len120/seq057_len120_s15_isi-1p0_0p0_16p0.json","10.72","true","5b7pydsdq6g","","2931","https://mcdermottlab.mit.edu/mturk_stimuli/bjmedina/mem_exp_ind-nature_2025/mem_stim_35.wav","1","main","","","false","mem_stim_35.wav","false","-1","","0","false_alarm"
"","","","","","html-keyboard-response","70","440951","0.0-10.0-1.19","https://mcdermottlab.mit.edu/mturk_stimuli/bjmedina/mem_exp_ind-nature_2025/sequences/isi_16/len120/seq057_len120_s15_isi-1p0_0p0_16p0.json","10.72","true","5b7pydsdq6g","","null","<span style=""font-size: 40px"">+</span>","null","","","","","","","","","",""
"","","","","","audio-button-response","71","444475","0.0-10.0-2.19","https://mcdermottlab.mit.edu/mturk_stimuli/bjmedina/mem_exp_ind-nature_2025/sequences/isi_16/len120/seq057_len120_s15_isi-1p0_0p0_16p0.json","10.72","true","5b7pydsdq6g","","3520","https://mcdermottlab.mit.edu/mturk_stimuli/bjmedina/mem_exp_ind-nature_2025/mem_stim_79.wav","1","main","","","true","mem_stim_79.wav","false","16","","1","hit"
"","","","","","html-keyboard-response","72","444545","0.0-10.0-1.20","https://mcdermottlab.mit.edu/mturk_stimuli/bjmedina/mem_exp_ind-nature_2025/sequences/isi_16/len120/seq057_len120_s15_isi-1p0_0p0_16p0.json","10.72","true","5b7pydsdq6g","","null","<span style=""font-size: 40px"">+</span>","null","","","","","","","","","",""
"","","","","","audio-button-response","73","451248","0.0-10.0-2.20","https://mcdermottlab.mit.edu/mturk_stimuli/bjmedina/mem_exp_ind-nature_2025/sequences/isi_16/len120/seq057_len120_s15_isi-1p0_0p0_16p0.json","10.72","true","5b7pydsdq6g","","6069","https://mcdermottlab.mit.edu/mturk_stimuli/bjmedina/mem_exp_ind-nature_2025/mem_stim_9.wav","1","main","","","false","mem_stim_9.wav","false","-1","","0","false_alarm"
"","","","","","html-keyboard-response","74","451314","0.0-10.0-1.21","https://mcdermottlab.mit.edu/mturk_stimuli/bjmedina/mem_exp_ind-nature_2025/sequences/isi_16/len120/seq057_len120_s15_isi-1p0_0p0_16p0.json","10.72","true","5b7pydsdq6g","","null","<span style=""font-size: 40px"">+</span>","null","","","","","","","","","",""
"","","","","","audio-button-response","75","455447","0.0-10.0-2.21","https://mcdermottlab.mit.edu/mturk_stimuli/bjmedina/mem_exp_ind-nature_2025/sequences/isi_16/len120/seq057_len120_s15_isi-1p0_0p0_16p0.json","10.72","true","5b7pydsdq6g","","3400","https://mcdermottlab.mit.edu/mturk_stimuli/bjmedina/mem_exp_ind-nature_2025/mem_stim_56.wav","0","main","","","false","mem_stim_56.wav","false","-1","","1","correct_rejection"
"","","","","","html-keyboard-response","76","455519","0.0-10.0-1.22","https://mcdermottlab.mit.edu/mturk_stimuli/bjmedina/mem_exp_ind-nature_2025/sequences/isi_16/len120/seq057_len120_s15_isi-1p0_0p0_16p0.json","10.72","true","5b7pydsdq6g","","null","<span style=""font-size: 40px"">+</span>","null","","","","","","","","","",""
"","","","","","audio-button-response","77","461683","0.0-10.0-2.22","https://mcdermottlab.mit.edu/mturk_stimuli/bjmedina/mem_exp_ind-nature_2025/sequences/isi_16/len120/seq057_len120_s15_isi-1p0_0p0_16p0.json","10.72","true","5b7pydsdq6g","","4011","https://mcdermottlab.mit.edu/mturk_stimuli/bjmedina/mem_exp_ind-nature_2025/mem_stim_25.wav","2","main","","","false","mem_stim_25.wav","false","-1","","1","correct_rejection"
"","","","","","html-keyboard-response","78","461751","0.0-10.0-1.23","https://mcdermottlab.mit.edu/mturk_stimuli/bjmedina/mem_exp_ind-nature_2025/sequences/isi_16/len120/seq057_len120_s15_isi-1p0_0p0_16p0.json","10.72","true","5b7pydsdq6g","","null","<span style=""font-size: 40px"">+</span>","null","","","","","","","","","",""
"","","","","","audio-button-response","79","466002","0.0-10.0-2.23","https://mcdermottlab.mit.edu/mturk_stimuli/bjmedina/mem_exp_ind-nature_2025/sequences/isi_16/len120/seq057_len120_s15_isi-1p0_0p0_16p0.json","10.72","true","5b7pydsdq6g","","3520","https://mcdermottlab.mit.edu/mturk_stimuli/bjmedina/mem_exp_ind-nature_2025/mem_stim_72.wav","0","main","","","false","mem_stim_72.wav","false","-1","","1","correct_rejection"
"","","","","","html-keyboard-response","80","466067","0.0-10.0-1.24","https://mcdermottlab.mit.edu/mturk_stimuli/bjmedina/mem_exp_ind-nature_2025/sequences/isi_16/len120/seq057_len120_s15_isi-1p0_0p0_16p0.json","10.72","true","5b7pydsdq6g","","null","<span style=""font-size: 40px"">+</span>","null","","","","","","","","","",""
"","","","","","audio-button-response","81","469937","0.0-10.0-2.24","https://mcdermottlab.mit.edu/mturk_stimuli/bjmedina/mem_exp_ind-nature_2025/sequences/isi_16/len120/seq057_len120_s15_isi-1p0_0p0_16p0.json","10.72","true","5b7pydsdq6g","","3872","https://mcdermottlab.mit.edu/mturk_stimuli/bjmedina/mem_exp_ind-nature_2025/mem_stim_75.wav","3","main","","","true","mem_stim_75.wav","false","16","","0","miss"
"","","","","","html-keyboard-response","82","470000","0.0-10.0-1.25","https://mcdermottlab.mit.edu/mturk_stimuli/bjmedina/mem_exp_ind-nature_2025/sequences/isi_16/len120/seq057_len120_s15_isi-1p0_0p0_16p0.json","10.72","true","5b7pydsdq6g","","null","<span style=""font-size: 40px"">+</span>","null","","","","","","","","","",""
"","","","","","audio-button-response","83","473413","0.0-10.0-2.25","https://mcdermottlab.mit.edu/mturk_stimuli/bjmedina/mem_exp_ind-nature_2025/sequences/isi_16/len120/seq057_len120_s15_isi-1p0_0p0_16p0.json","10.72","true","5b7pydsdq6g","","2821","https://mcdermottlab.mit.edu/mturk_stimuli/bjmedina/mem_exp_ind-nature_2025/mem_stim_14.wav","0","main","","","false","mem_stim_14.wav","false","-1","","1","correct_rejection"
"","","","","","html-keyboard-response","84","473484","0.0-10.0-1.26","https://mcdermottlab.mit.edu/mturk_stimuli/bjmedina/mem_exp_ind-nature_2025/sequences/isi_16/len120/seq057_len120_s15_isi-1p0_0p0_16p0.json","10.72","true","5b7pydsdq6g","","null","<span style=""font-size: 40px"">+</span>","null","","","","","","","","","",""
"","","","","","audio-button-response","85","478037","0.0-10.0-2.26","https://mcdermottlab.mit.edu/mturk_stimuli/bjmedina/mem_exp_ind-nature_2025/sequences/isi_16/len120/seq057_len120_s15_isi-1p0_0p0_16p0.json","10.72","true","5b7pydsdq6g","","3829","https://mcdermottlab.mit.edu/mturk_stimuli/bjmedina/mem_exp_ind-nature_2025/mem_stim_42.wav","1","main","","","false","mem_stim_42.wav","false","-1","","0","false_alarm"
"","","","","","html-keyboard-response","86","478100","0.0-10.0-1.27","https://mcdermottlab.mit.edu/mturk_stimuli/bjmedina/mem_exp_ind-nature_2025/sequences/isi_16/len120/seq057_len120_s15_isi-1p0_0p0_16p0.json","10.72","true","5b7pydsdq6g","","null","<span style=""font-size: 40px"">+</span>","null","","","","","","","","","",""
"","","","","","audio-button-response","87","480447","0.0-10.0-2.27","https://mcdermottlab.mit.edu/mturk_stimuli/bjmedina/mem_exp_ind-nature_2025/sequences/isi_16/len120/seq057_len120_s15_isi-1p0_0p0_16p0.json","10.72","true","5b7pydsdq6g","","2349","https://mcdermottlab.mit.edu/mturk_stimuli/bjmedina/mem_exp_ind-nature_2025/mem_stim_42.wav","3","main","","","true","mem_stim_42.wav","true","0","","0","miss"
"","","","","","html-keyboard-response","88","480519","0.0-10.0-1.28","https://mcdermottlab.mit.edu/mturk_stimuli/bjmedina/mem_exp_ind-nature_2025/sequences/isi_16/len120/seq057_len120_s15_isi-1p0_0p0_16p0.json","10.72","true","5b7pydsdq6g","","null","<span style=""font-size: 40px"">+</span>","null","","","","","","","","","",""
"","","","","","audio-button-response","89","483117","0.0-10.0-2.28","https://mcdermottlab.mit.edu/mturk_stimuli/bjmedina/mem_exp_ind-nature_2025/sequences/isi_16/len120/seq057_len120_s15_isi-1p0_0p0_16p0.json","10.72","true","5b7pydsdq6g","","2600","https://mcdermottlab.mit.edu/mturk_stimuli/bjmedina/mem_exp_ind-nature_2025/mem_stim_67.wav","2","main","","","true","mem_stim_67.wav","false","16","","0","miss"
"","","","","","html-keyboard-response","90","483185","0.0-10.0-1.29","https://mcdermottlab.mit.edu/mturk_stimuli/bjmedina/mem_exp_ind-nature_2025/sequences/isi_16/len120/seq057_len120_s15_isi-1p0_0p0_16p0.json","10.72","true","5b7pydsdq6g","","null","<span style=""font-size: 40px"">+</span>","null","","","","","","","","","",""
"","","","","","audio-button-response","91","486028","0.0-10.0-2.29","https://mcdermottlab.mit.edu/mturk_stimuli/bjmedina/mem_exp_ind-nature_2025/sequences/isi_16/len120/seq057_len120_s15_isi-1p0_0p0_16p0.json","10.72","true","5b7pydsdq6g","","2840","https://mcdermottlab.mit.edu/mturk_stimuli/bjmedina/mem_exp_ind-nature_2025/mem_stim_78.wav","2","main","","","true","mem_stim_78.wav","false","16","","0","miss"
"","","","","","html-keyboard-response","92","486094","0.0-10.0-1.30","https://mcdermottlab.mit.edu/mturk_stimuli/bjmedina/mem_exp_ind-nature_2025/sequences/isi_16/len120/seq057_len120_s15_isi-1p0_0p0_16p0.json","10.72","true","5b7pydsdq6g","","null","<span style=""font-size: 40px"">+</span>","null","","","","","","","","","",""
"","","","","","audio-button-response","93","489597","0.0-10.0-2.30","https://mcdermottlab.mit.edu/mturk_stimuli/bjmedina/mem_exp_ind-nature_2025/sequences/isi_16/len120/seq057_len120_s15_isi-1p0_0p0_16p0.json","10.72","true","5b7pydsdq6g","","2960","https://mcdermottlab.mit.edu/mturk_stimuli/bjmedina/mem_exp_ind-nature_2025/mem_stim_32.wav","0","main","","","false","mem_stim_32.wav","false","-1","","1","correct_rejection"
"","","","","","html-keyboard-response","94","489665","0.0-10.0-1.31","https://mcdermottlab.mit.edu/mturk_stimuli/bjmedina/mem_exp_ind-nature_2025/sequences/isi_16/len120/seq057_len120_s15_isi-1p0_0p0_16p0.json","10.72","true","5b7pydsdq6g","","null","<span style=""font-size: 40px"">+</span>","null","","","","","","","","","",""
"","","","","","audio-button-response","95","492767","0.0-10.0-2.31","https://mcdermottlab.mit.edu/mturk_stimuli/bjmedina/mem_exp_ind-nature_2025/sequences/isi_16/len120/seq057_len120_s15_isi-1p0_0p0_16p0.json","10.72","true","5b7pydsdq6g","","2680","https://mcdermottlab.mit.edu/mturk_stimuli/bjmedina/mem_exp_ind-nature_2025/mem_stim_65.wav","0","main","","","false","mem_stim_65.wav","false","-1","","1","correct_rejection"
"","","","","","html-keyboard-response","96","492849","0.0-10.0-1.32","https://mcdermottlab.mit.edu/mturk_stimuli/bjmedina/mem_exp_ind-nature_2025/sequences/isi_16/len120/seq057_len120_s15_isi-1p0_0p0_16p0.json","10.72","true","5b7pydsdq6g","","null","<span style=""font-size: 40px"">+</span>","null","","","","","","","","","",""
"","","","","","audio-button-response","97","496405","0.0-10.0-2.32","https://mcdermottlab.mit.edu/mturk_stimuli/bjmedina/mem_exp_ind-nature_2025/sequences/isi_16/len120/seq057_len120_s15_isi-1p0_0p0_16p0.json","10.72","true","5b7pydsdq6g","","2819","https://mcdermottlab.mit.edu/mturk_stimuli/bjmedina/mem_exp_ind-nature_2025/mem_stim_39.wav","0","main","","","false","mem_stim_39.wav","false","-1","","1","correct_rejection"
"","","","","","html-keyboard-response","98","496483","0.0-10.0-1.33","https://mcdermottlab.mit.edu/mturk_stimuli/bjmedina/mem_exp_ind-nature_2025/sequences/isi_16/len120/seq057_len120_s15_isi-1p0_0p0_16p0.json","10.72","true","5b7pydsdq6g","","null","<span style=""font-size: 40px"">+</span>","null","","","","","","","","","",""
"","","","","","audio-button-response","99","499105","0.0-10.0-2.33","https://mcdermottlab.mit.edu/mturk_stimuli/bjmedina/mem_exp_ind-nature_2025/sequences/isi_16/len120/seq057_len120_s15_isi-1p0_0p0_16p0.json","10.72","true","5b7pydsdq6g","","2611","https://mcdermottlab.mit.edu/mturk_stimuli/bjmedina/mem_exp_ind-nature_2025/mem_stim_51.wav","2","main","","","true","mem_stim_51.wav","false","16","","0","miss"
"","","","","","html-keyboard-response","100","499168","0.0-10.0-1.34","https://mcdermottlab.mit.edu/mturk_stimuli/bjmedina/mem_exp_ind-nature_2025/sequences/isi_16/len120/seq057_len120_s15_isi-1p0_0p0_16p0.json","10.72","true","5b7pydsdq6g","","null","<span style=""font-size: 40px"">+</span>","null","","","","","","","","","",""
"","","","","","audio-button-response","101","502258","0.0-10.0-2.34","https://mcdermottlab.mit.edu/mturk_stimuli/bjmedina/mem_exp_ind-nature_2025/sequences/isi_16/len120/seq057_len120_s15_isi-1p0_0p0_16p0.json","10.72","true","5b7pydsdq6g","","3091","https://mcdermottlab.mit.edu/mturk_stimuli/bjmedina/mem_exp_ind-nature_2025/mem_stim_54.wav","2","main","","","true","mem_stim_54.wav","false","16","","0","miss"
"","","","","","html-keyboard-response","102","502317","0.0-10.0-1.35","https://mcdermottlab.mit.edu/mturk_stimuli/bjmedina/mem_exp_ind-nature_2025/sequences/isi_16/len120/seq057_len120_s15_isi-1p0_0p0_16p0.json","10.72","true","5b7pydsdq6g","","null","<span style=""font-size: 40px"">+</span>","null","","","","","","","","","",""
"","","","","","audio-button-response","103","508461","0.0-10.0-2.35","https://mcdermottlab.mit.edu/mturk_stimuli/bjmedina/mem_exp_ind-nature_2025/sequences/isi_16/len120/seq057_len120_s15_isi-1p0_0p0_16p0.json","10.72","true","5b7pydsdq6g","","5301","https://mcdermottlab.mit.edu/mturk_stimuli/bjmedina/mem_exp_ind-nature_2025/mem_stim_64.wav","0","main","","","false","mem_stim_64.wav","false","-1","","1","correct_rejection"
"","","","","","html-keyboard-response","104","508534","0.0-10.0-1.36","https://mcdermottlab.mit.edu/mturk_stimuli/bjmedina/mem_exp_ind-nature_2025/sequences/isi_16/len120/seq057_len120_s15_isi-1p0_0p0_16p0.json","10.72","true","5b7pydsdq6g","","null","<span style=""font-size: 40px"">+</span>","null","","","","","","","","","",""
"","","","","","audio-button-response","105","513341","0.0-10.0-2.36","https://mcdermottlab.mit.edu/mturk_stimuli/bjmedina/mem_exp_ind-nature_2025/sequences/isi_16/len120/seq057_len120_s15_isi-1p0_0p0_16p0.json","10.72","true","5b7pydsdq6g","","4051","https://mcdermottlab.mit.edu/mturk_stimuli/bjmedina/mem_exp_ind-nature_2025/mem_stim_69.wav","1","main","","","false","mem_stim_69.wav","false","-1","","0","false_alarm"
"","","","","","html-keyboard-response","106","513417","0.0-10.0-1.37","https://mcdermottlab.mit.edu/mturk_stimuli/bjmedina/mem_exp_ind-nature_2025/sequences/isi_16/len120/seq057_len120_s15_isi-1p0_0p0_16p0.json","10.72","true","5b7pydsdq6g","","null","<span style=""font-size: 40px"">+</span>","null","","","","","","","","","",""
"","","","","","audio-button-response","107","516715","0.0-10.0-2.37","https://mcdermottlab.mit.edu/mturk_stimuli/bjmedina/mem_exp_ind-nature_2025/sequences/isi_16/len120/seq057_len120_s15_isi-1p0_0p0_16p0.json","10.72","true","5b7pydsdq6g","","2669","https://mcdermottlab.mit.edu/mturk_stimuli/bjmedina/mem_exp_ind-nature_2025/mem_stim_71.wav","2","main","","","false","mem_stim_71.wav","false","-1","","1","correct_rejection"
"","","","","","html-keyboard-response","108","516783","0.0-10.0-1.38","https://mcdermottlab.mit.edu/mturk_stimuli/bjmedina/mem_exp_ind-nature_2025/sequences/isi_16/len120/seq057_len120_s15_isi-1p0_0p0_16p0.json","10.72","true","5b7pydsdq6g","","null","<span style=""font-size: 40px"">+</span>","null","","","","","","","","","",""
"","","","","","audio-button-response","109","519986","0.0-10.0-2.38","https://mcdermottlab.mit.edu/mturk_stimuli/bjmedina/mem_exp_ind-nature_2025/sequences/isi_16/len120/seq057_len120_s15_isi-1p0_0p0_16p0.json","10.72","true","5b7pydsdq6g","","3200","https://mcdermottlab.mit.edu/mturk_stimuli/bjmedina/mem_exp_ind-nature_2025/mem_stim_56.wav","3","main","","","true","mem_stim_56.wav","false","16","","0","miss"
"","","","","","html-keyboard-response","110","520050","0.0-10.0-1.39","https://mcdermottlab.mit.edu/mturk_stimuli/bjmedina/mem_exp_ind-nature_2025/sequences/isi_16/len120/seq057_len120_s15_isi-1p0_0p0_16p0.json","10.72","true","5b7pydsdq6g","","null","<span style=""font-size: 40px"">+</span>","null","","","","","","","","","",""
"","","","","","audio-button-response","111","523747","0.0-10.0-2.39","https://mcdermottlab.mit.edu/mturk_stimuli/bjmedina/mem_exp_ind-nature_2025/sequences/isi_16/len120/seq057_len120_s15_isi-1p0_0p0_16p0.json","10.72","true","5b7pydsdq6g","","3229","https://mcdermottlab.mit.edu/mturk_stimuli/bjmedina/mem_exp_ind-nature_2025/mem_stim_29.wav","0","main","","","false","mem_stim_29.wav","false","-1","","1","correct_rejection"
"","","","","","html-keyboard-response","112","523814","0.0-10.0-1.40","https://mcdermottlab.mit.edu/mturk_stimuli/bjmedina/mem_exp_ind-nature_2025/sequences/isi_16/len120/seq057_len120_s15_isi-1p0_0p0_16p0.json","10.72","true","5b7pydsdq6g","","null","<span style=""font-size: 40px"">+</span>","null","","","","","","","","","",""
"","","","","","audio-button-response","113","526859","0.0-10.0-2.40","https://mcdermottlab.mit.edu/mturk_stimuli/bjmedina/mem_exp_ind-nature_2025/sequences/isi_16/len120/seq057_len120_s15_isi-1p0_0p0_16p0.json","10.72","true","5b7pydsdq6g","","3040","https://mcdermottlab.mit.edu/mturk_stimuli/bjmedina/mem_exp_ind-nature_2025/mem_stim_72.wav","2","main","","","true","mem_stim_72.wav","false","16","","0","miss"
"","","","","","html-keyboard-response","114","526934","0.0-10.0-1.41","https://mcdermottlab.mit.edu/mturk_stimuli/bjmedina/mem_exp_ind-nature_2025/sequences/isi_16/len120/seq057_len120_s15_isi-1p0_0p0_16p0.json","10.72","true","5b7pydsdq6g","","null","<span style=""font-size: 40px"">+</span>","null","","","","","","","","","",""
"","","","","","audio-button-response","115","530205","0.0-10.0-2.41","https://mcdermottlab.mit.edu/mturk_stimuli/bjmedina/mem_exp_ind-nature_2025/sequences/isi_16/len120/seq057_len120_s15_isi-1p0_0p0_16p0.json","10.72","true","5b7pydsdq6g","","2779","https://mcdermottlab.mit.edu/mturk_stimuli/bjmedina/mem_exp_ind-nature_2025/mem_stim_62.wav","2","main","","","false","mem_stim_62.wav","false","-1","","1","correct_rejection"
"","","","","","html-keyboard-response","116","530267","0.0-10.0-1.42","https://mcdermottlab.mit.edu/mturk_stimuli/bjmedina/mem_exp_ind-nature_2025/sequences/isi_16/len120/seq057_len120_s15_isi-1p0_0p0_16p0.json","10.72","true","5b7pydsdq6g","","null","<span style=""font-size: 40px"">+</span>","null","","","","","","","","","",""
"","","","","","audio-button-response","117","534942","0.0-10.0-2.42","https://mcdermottlab.mit.edu/mturk_stimuli/bjmedina/mem_exp_ind-nature_2025/sequences/isi_16/len120/seq057_len120_s15_isi-1p0_0p0_16p0.json","10.72","true","5b7pydsdq6g","","4160","https://mcdermottlab.mit.edu/mturk_stimuli/bjmedina/mem_exp_ind-nature_2025/mem_stim_77.wav","0","main","","","false","mem_stim_77.wav","false","-1","","1","correct_rejection"
"","","","","","html-keyboard-response","118","535016","0.0-10.0-1.43","https://mcdermottlab.mit.edu/mturk_stimuli/bjmedina/mem_exp_ind-nature_2025/sequences/isi_16/len120/seq057_len120_s15_isi-1p0_0p0_16p0.json","10.72","true","5b7pydsdq6g","","null","<span style=""font-size: 40px"">+</span>","null","","","","","","","","","",""
"","","","","","audio-button-response","119","539661","0.0-10.0-2.43","https://mcdermottlab.mit.edu/mturk_stimuli/bjmedina/mem_exp_ind-nature_2025/sequences/isi_16/len120/seq057_len120_s15_isi-1p0_0p0_16p0.json","10.72","true","5b7pydsdq6g","","3920","https://mcdermottlab.mit.edu/mturk_stimuli/bjmedina/mem_exp_ind-nature_2025/mem_stim_70.wav","1","main","","","false","mem_stim_70.wav","false","-1","","0","false_alarm"
"","","","","","html-keyboard-response","120","539734","0.0-10.0-1.44","https://mcdermottlab.mit.edu/mturk_stimuli/bjmedina/mem_exp_ind-nature_2025/sequences/isi_16/len120/seq057_len120_s15_isi-1p0_0p0_16p0.json","10.72","true","5b7pydsdq6g","","null","<span style=""font-size: 40px"">+</span>","null","","","","","","","","","",""
"","","","","","audio-button-response","121","542867","0.0-10.0-2.44","https://mcdermottlab.mit.edu/mturk_stimuli/bjmedina/mem_exp_ind-nature_2025/sequences/isi_16/len120/seq057_len120_s15_isi-1p0_0p0_16p0.json","10.72","true","5b7pydsdq6g","","2608","https://mcdermottlab.mit.edu/mturk_stimuli/bjmedina/mem_exp_ind-nature_2025/mem_stim_58.wav","0","main","","","false","mem_stim_58.wav","false","-1","","1","correct_rejection"
"","","","","","html-keyboard-response","122","542933","0.0-10.0-1.45","https://mcdermottlab.mit.edu/mturk_stimuli/bjmedina/mem_exp_ind-nature_2025/sequences/isi_16/len120/seq057_len120_s15_isi-1p0_0p0_16p0.json","10.72","true","5b7pydsdq6g","","null","<span style=""font-size: 40px"">+</span>","null","","","","","","","","","",""
"","","","","","audio-button-response","123","548634","0.0-10.0-2.45","https://mcdermottlab.mit.edu/mturk_stimuli/bjmedina/mem_exp_ind-nature_2025/sequences/isi_16/len120/seq057_len120_s15_isi-1p0_0p0_16p0.json","10.72","true","5b7pydsdq6g","","4968","https://mcdermottlab.mit.edu/mturk_stimuli/bjmedina/mem_exp_ind-nature_2025/mem_stim_28.wav","1","main","","","false","mem_stim_28.wav","false","-1","","0","false_alarm"
"","","","","","html-keyboard-response","124","548701","0.0-10.0-1.46","https://mcdermottlab.mit.edu/mturk_stimuli/bjmedina/mem_exp_ind-nature_2025/sequences/isi_16/len120/seq057_len120_s15_isi-1p0_0p0_16p0.json","10.72","true","5b7pydsdq6g","","null","<span style=""font-size: 40px"">+</span>","null","","","","","","","","","",""
"","","","","","audio-button-response","125","553340","0.0-10.0-2.46","https://mcdermottlab.mit.edu/mturk_stimuli/bjmedina/mem_exp_ind-nature_2025/sequences/isi_16/len120/seq057_len120_s15_isi-1p0_0p0_16p0.json","10.72","true","5b7pydsdq6g","","3912","https://mcdermottlab.mit.edu/mturk_stimuli/bjmedina/mem_exp_ind-nature_2025/mem_stim_44.wav","0","main","","","false","mem_stim_44.wav","false","-1","","1","correct_rejection"
"","","","","","html-keyboard-response","126","553418","0.0-10.0-1.47","https://mcdermottlab.mit.edu/mturk_stimuli/bjmedina/mem_exp_ind-nature_2025/sequences/isi_16/len120/seq057_len120_s15_isi-1p0_0p0_16p0.json","10.72","true","5b7pydsdq6g","","null","<span style=""font-size: 40px"">+</span>","null","","","","","","","","","",""
"","","","","","audio-button-response","127","555983","0.0-10.0-2.47","https://mcdermottlab.mit.edu/mturk_stimuli/bjmedina/mem_exp_ind-nature_2025/sequences/isi_16/len120/seq057_len120_s15_isi-1p0_0p0_16p0.json","10.72","true","5b7pydsdq6g","","2560","https://mcdermottlab.mit.edu/mturk_stimuli/bjmedina/mem_exp_ind-nature_2025/mem_stim_44.wav","3","main","","","true","mem_stim_44.wav","true","0","","0","miss"
"","","","","","html-keyboard-response","128","556051","0.0-10.0-1.48","https://mcdermottlab.mit.edu/mturk_stimuli/bjmedina/mem_exp_ind-nature_2025/sequences/isi_16/len120/seq057_len120_s15_isi-1p0_0p0_16p0.json","10.72","true","5b7pydsdq6g","","null","<span style=""font-size: 40px"">+</span>","null","","","","","","","","","",""
"","","","","","audio-button-response","129","558753","0.0-10.0-2.48","https://mcdermottlab.mit.edu/mturk_stimuli/bjmedina/mem_exp_ind-nature_2025/sequences/isi_16/len120/seq057_len120_s15_isi-1p0_0p0_16p0.json","10.72","true","5b7pydsdq6g","","2699","https://mcdermottlab.mit.edu/mturk_stimuli/bjmedina/mem_exp_ind-nature_2025/mem_stim_65.wav","2","main","","","true","mem_stim_65.wav","false","16","","0","miss"
"","","","","","html-keyboard-response","130","558817","0.0-10.0-1.49","https://mcdermottlab.mit.edu/mturk_stimuli/bjmedina/mem_exp_ind-nature_2025/sequences/isi_16/len120/seq057_len120_s15_isi-1p0_0p0_16p0.json","10.72","true","5b7pydsdq6g","","null","<span style=""font-size: 40px"">+</span>","null","","","","","","","","","",""
"","","","","","audio-button-response","131","561963","0.0-10.0-2.49","https://mcdermottlab.mit.edu/mturk_stimuli/bjmedina/mem_exp_ind-nature_2025/sequences/isi_16/len120/seq057_len120_s15_isi-1p0_0p0_16p0.json","10.72","true","5b7pydsdq6g","","2571","https://mcdermottlab.mit.edu/mturk_stimuli/bjmedina/mem_exp_ind-nature_2025/mem_stim_52.wav","0","main","","","false","mem_stim_52.wav","false","-1","","1","correct_rejection"
"","","","","","html-keyboard-response","132","562034","0.0-10.0-1.50","https://mcdermottlab.mit.edu/mturk_stimuli/bjmedina/mem_exp_ind-nature_2025/sequences/isi_16/len120/seq057_len120_s15_isi-1p0_0p0_16p0.json","10.72","true","5b7pydsdq6g","","null","<span style=""font-size: 40px"">+</span>","null","","","","","","","","","",""
"","","","","","audio-button-response","133","564780","0.0-10.0-2.50","https://mcdermottlab.mit.edu/mturk_stimuli/bjmedina/mem_exp_ind-nature_2025/sequences/isi_16/len120/seq057_len120_s15_isi-1p0_0p0_16p0.json","10.72","true","5b7pydsdq6g","","2120","https://mcdermottlab.mit.edu/mturk_stimuli/bjmedina/mem_exp_ind-nature_2025/mem_stim_23.wav","0","main","","","false","mem_stim_23.wav","false","-1","","1","correct_rejection"
"","","","","","html-keyboard-response","134","564851","0.0-10.0-1.51","https://mcdermottlab.mit.edu/mturk_stimuli/bjmedina/mem_exp_ind-nature_2025/sequences/isi_16/len120/seq057_len120_s15_isi-1p0_0p0_16p0.json","10.72","true","5b7pydsdq6g","","null","<span style=""font-size: 40px"">+</span>","null","","","","","","","","","",""
"","","","","","audio-button-response","135","567430","0.0-10.0-2.51","https://mcdermottlab.mit.edu/mturk_stimuli/bjmedina/mem_exp_ind-nature_2025/sequences/isi_16/len120/seq057_len120_s15_isi-1p0_0p0_16p0.json","10.72","true","5b7pydsdq6g","","2069","https://mcdermottlab.mit.edu/mturk_stimuli/bjmedina/mem_exp_ind-nature_2025/mem_stim_13.wav","0","main","","","false","mem_stim_13.wav","false","-1","","1","correct_rejection"
"","","","","","html-keyboard-response","136","567501","0.0-10.0-1.52","https://mcdermottlab.mit.edu/mturk_stimuli/bjmedina/mem_exp_ind-nature_2025/sequences/isi_16/len120/seq057_len120_s15_isi-1p0_0p0_16p0.json","10.72","true","5b7pydsdq6g","","null","<span style=""font-size: 40px"">+</span>","null","","","","","","","","","",""
"","","","","","audio-button-response","137","574741","0.0-10.0-2.52","https://mcdermottlab.mit.edu/mturk_stimuli/bjmedina/mem_exp_ind-nature_2025/sequences/isi_16/len120/seq057_len120_s15_isi-1p0_0p0_16p0.json","10.72","true","5b7pydsdq6g","","7240","https://mcdermottlab.mit.edu/mturk_stimuli/bjmedina/mem_exp_ind-nature_2025/mem_stim_64.wav","2","main","","","true","mem_stim_64.wav","false","16","","0","miss"
"","","","","","html-keyboard-response","138","574817","0.0-10.0-1.53","https://mcdermottlab.mit.edu/mturk_stimuli/bjmedina/mem_exp_ind-nature_2025/sequences/isi_16/len120/seq057_len120_s15_isi-1p0_0p0_16p0.json","10.72","true","5b7pydsdq6g","","null","<span style=""font-size: 40px"">+</span>","null","","","","","","","","","",""
"","","","","","audio-button-response","139","580988","0.0-10.0-2.53","https://mcdermottlab.mit.edu/mturk_stimuli/bjmedina/mem_exp_ind-nature_2025/sequences/isi_16/len120/seq057_len120_s15_isi-1p0_0p0_16p0.json","10.72","true","5b7pydsdq6g","","6168","https://mcdermottlab.mit.edu/mturk_stimuli/bjmedina/mem_exp_ind-nature_2025/mem_stim_69.wav","1","main","","","true","mem_stim_69.wav","false","16","","1","hit"
"","","","","","html-keyboard-response","140","581050","0.0-10.0-1.54","https://mcdermottlab.mit.edu/mturk_stimuli/bjmedina/mem_exp_ind-nature_2025/sequences/isi_16/len120/seq057_len120_s15_isi-1p0_0p0_16p0.json","10.72","true","5b7pydsdq6g","","null","<span style=""font-size: 40px"">+</span>","null","","","","","","","","","",""
"","","","","","audio-button-response","141","583671","0.0-10.0-2.54","https://mcdermottlab.mit.edu/mturk_stimuli/bjmedina/mem_exp_ind-nature_2025/sequences/isi_16/len120/seq057_len120_s15_isi-1p0_0p0_16p0.json","10.72","true","5b7pydsdq6g","","2619","https://mcdermottlab.mit.edu/mturk_stimuli/bjmedina/mem_exp_ind-nature_2025/mem_stim_71.wav","2","main","","","true","mem_stim_71.wav","false","16","","0","miss"
"","","","","","html-keyboard-response","142","583733","0.0-10.0-1.55","https://mcdermottlab.mit.edu/mturk_stimuli/bjmedina/mem_exp_ind-nature_2025/sequences/isi_16/len120/seq057_len120_s15_isi-1p0_0p0_16p0.json","10.72","true","5b7pydsdq6g","","null","<span style=""font-size: 40px"">+</span>","null","","","","","","","","","",""
"","","","","","audio-button-response","143","587448","0.0-10.0-2.55","https://mcdermottlab.mit.edu/mturk_stimuli/bjmedina/mem_exp_ind-nature_2025/sequences/isi_16/len120/seq057_len120_s15_isi-1p0_0p0_16p0.json","10.72","true","5b7pydsdq6g","","2989","https://mcdermottlab.mit.edu/mturk_stimuli/bjmedina/mem_exp_ind-nature_2025/mem_stim_37.wav","1","main","","","false","mem_stim_37.wav","false","-1","","0","false_alarm"
"","","","","","html-keyboard-response","144","587514","0.0-10.0-1.56","https://mcdermottlab.mit.edu/mturk_stimuli/bjmedina/mem_exp_ind-nature_2025/sequences/isi_16/len120/seq057_len120_s15_isi-1p0_0p0_16p0.json","10.72","true","5b7pydsdq6g","","null","<span style=""font-size: 40px"">+</span>","null","","","","","","","","","",""
"","","","","","audio-button-response","145","590957","0.0-10.0-2.56","https://mcdermottlab.mit.edu/mturk_stimuli/bjmedina/mem_exp_ind-nature_2025/sequences/isi_16/len120/seq057_len120_s15_isi-1p0_0p0_16p0.json","10.72","true","5b7pydsdq6g","","3040","https://mcdermottlab.mit.edu/mturk_stimuli/bjmedina/mem_exp_ind-nature_2025/mem_stim_46.wav","2","main","","","false","mem_stim_46.wav","false","-1","","1","correct_rejection"
"","","","","","html-keyboard-response","146","591016","0.0-10.0-1.57","https://mcdermottlab.mit.edu/mturk_stimuli/bjmedina/mem_exp_ind-nature_2025/sequences/isi_16/len120/seq057_len120_s15_isi-1p0_0p0_16p0.json","10.72","true","5b7pydsdq6g","","null","<span style=""font-size: 40px"">+</span>","null","","","","","","","","","",""
"","","","","","audio-button-response","147","593525","0.0-10.0-2.57","https://mcdermottlab.mit.edu/mturk_stimuli/bjmedina/mem_exp_ind-nature_2025/sequences/isi_16/len120/seq057_len120_s15_isi-1p0_0p0_16p0.json","10.72","true","5b7pydsdq6g","","2499","https://mcdermottlab.mit.edu/mturk_stimuli/bjmedina/mem_exp_ind-nature_2025/mem_stim_46.wav","3","main","","","true","mem_stim_46.wav","true","0","","0","miss"
"","","","","","html-keyboard-response","148","593601","0.0-10.0-1.58","https://mcdermottlab.mit.edu/mturk_stimuli/bjmedina/mem_exp_ind-nature_2025/sequences/isi_16/len120/seq057_len120_s15_isi-1p0_0p0_16p0.json","10.72","true","5b7pydsdq6g","","null","<span style=""font-size: 40px"">+</span>","null","","","","","","","","","",""
"","","","","","audio-button-response","149","596166","0.0-10.0-2.58","https://mcdermottlab.mit.edu/mturk_stimuli/bjmedina/mem_exp_ind-nature_2025/sequences/isi_16/len120/seq057_len120_s15_isi-1p0_0p0_16p0.json","10.72","true","5b7pydsdq6g","","2571","https://mcdermottlab.mit.edu/mturk_stimuli/bjmedina/mem_exp_ind-nature_2025/mem_stim_62.wav","2","main","","","true","mem_stim_62.wav","false","16","","0","miss"
"","","","","","html-keyboard-response","150","596234","0.0-10.0-1.59","https://mcdermottlab.mit.edu/mturk_stimuli/bjmedina/mem_exp_ind-nature_2025/sequences/isi_16/len120/seq057_len120_s15_isi-1p0_0p0_16p0.json","10.72","true","5b7pydsdq6g","","null","<span style=""font-size: 40px"">+</span>","null","","","","","","","","","",""
"","","","","","audio-button-response","151","601482","0.0-10.0-2.59","https://mcdermottlab.mit.edu/mturk_stimuli/bjmedina/mem_exp_ind-nature_2025/sequences/isi_16/len120/seq057_len120_s15_isi-1p0_0p0_16p0.json","10.72","true","5b7pydsdq6g","","5240","https://mcdermottlab.mit.edu/mturk_stimuli/bjmedina/mem_exp_ind-nature_2025/mem_stim_77.wav","1","main","","","true","mem_stim_77.wav","false","16","","1","hit"
"","","","","","html-keyboard-response","152","601550","0.0-10.0-1.60","https://mcdermottlab.mit.edu/mturk_stimuli/bjmedina/mem_exp_ind-nature_2025/sequences/isi_16/len120/seq057_len120_s15_isi-1p0_0p0_16p0.json","10.72","true","5b7pydsdq6g","","null","<span style=""font-size: 40px"">+</span>","null","","","","","","","","","",""
"","","","","","audio-button-response","153","604877","0.0-10.0-2.60","https://mcdermottlab.mit.edu/mturk_stimuli/bjmedina/mem_exp_ind-nature_2025/sequences/isi_16/len120/seq057_len120_s15_isi-1p0_0p0_16p0.json","10.72","true","5b7pydsdq6g","","3331","https://mcdermottlab.mit.edu/mturk_stimuli/bjmedina/mem_exp_ind-nature_2025/mem_stim_70.wav","3","main","","","true","mem_stim_70.wav","false","16","","0","miss"
"","","","","","html-keyboard-response","154","604949","0.0-10.0-1.61","https://mcdermottlab.mit.edu/mturk_stimuli/bjmedina/mem_exp_ind-nature_2025/sequences/isi_16/len120/seq057_len120_s15_isi-1p0_0p0_16p0.json","10.72","true","5b7pydsdq6g","","null","<span style=""font-size: 40px"">+</span>","null","","","","","","","","","",""
"","","","","","audio-button-response","155","607713","0.0-10.0-2.61","https://mcdermottlab.mit.edu/mturk_stimuli/bjmedina/mem_exp_ind-nature_2025/sequences/isi_16/len120/seq057_len120_s15_isi-1p0_0p0_16p0.json","10.72","true","5b7pydsdq6g","","2760","https://mcdermottlab.mit.edu/mturk_stimuli/bjmedina/mem_exp_ind-nature_2025/mem_stim_58.wav","3","main","","","true","mem_stim_58.wav","false","16","","0","miss"
"","","","","","html-keyboard-response","156","607784","0.0-10.0-1.62","https://mcdermottlab.mit.edu/mturk_stimuli/bjmedina/mem_exp_ind-nature_2025/sequences/isi_16/len120/seq057_len120_s15_isi-1p0_0p0_16p0.json","10.72","true","5b7pydsdq6g","","null","<span style=""font-size: 40px"">+</span>","null","","","","","","","","","",""
"","","","","","audio-button-response","157","614362","0.0-10.0-2.62","https://mcdermottlab.mit.edu/mturk_stimuli/bjmedina/mem_exp_ind-nature_2025/sequences/isi_16/len120/seq057_len120_s15_isi-1p0_0p0_16p0.json","10.72","true","5b7pydsdq6g","","5949","https://mcdermottlab.mit.edu/mturk_stimuli/bjmedina/mem_exp_ind-nature_2025/mem_stim_27.wav","2","main","","","false","mem_stim_27.wav","false","-1","","1","correct_rejection"
"","","","","","html-keyboard-response","158","614434","0.0-10.0-1.63","https://mcdermottlab.mit.edu/mturk_stimuli/bjmedina/mem_exp_ind-nature_2025/sequences/isi_16/len120/seq057_len120_s15_isi-1p0_0p0_16p0.json","10.72","true","5b7pydsdq6g","","null","<span style=""font-size: 40px"">+</span>","null","","","","","","","","","",""
"","","","","","audio-button-response","159","618031","0.0-10.0-2.63","https://mcdermottlab.mit.edu/mturk_stimuli/bjmedina/mem_exp_ind-nature_2025/sequences/isi_16/len120/seq057_len120_s15_isi-1p0_0p0_16p0.json","10.72","true","5b7pydsdq6g","","2869","https://mcdermottlab.mit.edu/mturk_stimuli/bjmedina/mem_exp_ind-nature_2025/mem_stim_41.wav","0","main","","","false","mem_stim_41.wav","false","-1","","1","correct_rejection"
"","","","","","html-keyboard-response","160","618094","0.0-10.0-1.64","https://mcdermottlab.mit.edu/mturk_stimuli/bjmedina/mem_exp_ind-nature_2025/sequences/isi_16/len120/seq057_len120_s15_isi-1p0_0p0_16p0.json","10.72","true","5b7pydsdq6g","","null","<span style=""font-size: 40px"">+</span>","null","","","","","","","","","",""
"","","","","","audio-button-response","161","620585","0.0-10.0-2.64","https://mcdermottlab.mit.edu/mturk_stimuli/bjmedina/mem_exp_ind-nature_2025/sequences/isi_16/len120/seq057_len120_s15_isi-1p0_0p0_16p0.json","10.72","true","5b7pydsdq6g","","2480","https://mcdermottlab.mit.edu/mturk_stimuli/bjmedina/mem_exp_ind-nature_2025/mem_stim_41.wav","3","main","","","true","mem_stim_41.wav","true","0","","0","miss"
"","","","","","html-keyboard-response","162","620650","0.0-10.0-1.65","https://mcdermottlab.mit.edu/mturk_stimuli/bjmedina/mem_exp_ind-nature_2025/sequences/isi_16/len120/seq057_len120_s15_isi-1p0_0p0_16p0.json","10.72","true","5b7pydsdq6g","","null","<span style=""font-size: 40px"">+</span>","null","","","","","","","","","",""
"","","","","","audio-button-response","163","623606","0.0-10.0-2.65","https://mcdermottlab.mit.edu/mturk_stimuli/bjmedina/mem_exp_ind-nature_2025/sequences/isi_16/len120/seq057_len120_s15_isi-1p0_0p0_16p0.json","10.72","true","5b7pydsdq6g","","2229","https://mcdermottlab.mit.edu/mturk_stimuli/bjmedina/mem_exp_ind-nature_2025/mem_stim_33.wav","0","main","","","false","mem_stim_33.wav","false","-1","","1","correct_rejection"
"","","","","","html-keyboard-response","164","623684","0.0-10.0-1.66","https://mcdermottlab.mit.edu/mturk_stimuli/bjmedina/mem_exp_ind-nature_2025/sequences/isi_16/len120/seq057_len120_s15_isi-1p0_0p0_16p0.json","10.72","true","5b7pydsdq6g","","null","<span style=""font-size: 40px"">+</span>","null","","","","","","","","","",""
"","","","","","audio-button-response","165","626313","0.0-10.0-2.66","https://mcdermottlab.mit.edu/mturk_stimuli/bjmedina/mem_exp_ind-nature_2025/sequences/isi_16/len120/seq057_len120_s15_isi-1p0_0p0_16p0.json","10.72","true","5b7pydsdq6g","","2619","https://mcdermottlab.mit.edu/mturk_stimuli/bjmedina/mem_exp_ind-nature_2025/mem_stim_52.wav","3","main","","","true","mem_stim_52.wav","false","16","","0","miss"
"","","","","","html-keyboard-response","166","626385","0.0-10.0-1.67","https://mcdermottlab.mit.edu/mturk_stimuli/bjmedina/mem_exp_ind-nature_2025/sequences/isi_16/len120/seq057_len120_s15_isi-1p0_0p0_16p0.json","10.72","true","5b7pydsdq6g","","null","<span style=""font-size: 40px"">+</span>","null","","","","","","","","","",""
"","","","","","audio-button-response","167","629027","0.0-10.0-2.67","https://mcdermottlab.mit.edu/mturk_stimuli/bjmedina/mem_exp_ind-nature_2025/sequences/isi_16/len120/seq057_len120_s15_isi-1p0_0p0_16p0.json","10.72","true","5b7pydsdq6g","","2088","https://mcdermottlab.mit.edu/mturk_stimuli/bjmedina/mem_exp_ind-nature_2025/mem_stim_43.wav","0","main","","","false","mem_stim_43.wav","false","-1","","1","correct_rejection"
"","","","","","html-keyboard-response","168","629094","0.0-10.0-1.68","https://mcdermottlab.mit.edu/mturk_stimuli/bjmedina/mem_exp_ind-nature_2025/sequences/isi_16/len120/seq057_len120_s15_isi-1p0_0p0_16p0.json","10.72","true","5b7pydsdq6g","","null","<span style=""font-size: 40px"">+</span>","null","","","","","","","","","",""
"","","","","","audio-button-response","169","633532","0.0-10.0-2.68","https://mcdermottlab.mit.edu/mturk_stimuli/bjmedina/mem_exp_ind-nature_2025/sequences/isi_16/len120/seq057_len120_s15_isi-1p0_0p0_16p0.json","10.72","true","5b7pydsdq6g","","4429","https://mcdermottlab.mit.edu/mturk_stimuli/bjmedina/mem_exp_ind-nature_2025/mem_stim_43.wav","3","main","","","true","mem_stim_43.wav","true","0","","0","miss"
"","","","","","html-keyboard-response","170","633599","0.0-10.0-1.69","https://mcdermottlab.mit.edu/mturk_stimuli/bjmedina/mem_exp_ind-nature_2025/sequences/isi_16/len120/seq057_len120_s15_isi-1p0_0p0_16p0.json","10.72","true","5b7pydsdq6g","","null","<span style=""font-size: 40px"">+</span>","null","","","","","","","","","",""
"","","","","","audio-button-response","171","637502","0.0-10.0-2.69","https://mcdermottlab.mit.edu/mturk_stimuli/bjmedina/mem_exp_ind-nature_2025/sequences/isi_16/len120/seq057_len120_s15_isi-1p0_0p0_16p0.json","10.72","true","5b7pydsdq6g","","3392","https://mcdermottlab.mit.edu/mturk_stimuli/bjmedina/mem_exp_ind-nature_2025/mem_stim_73.wav","2","main","","","false","mem_stim_73.wav","false","-1","","1","correct_rejection"
"","","","","","html-keyboard-response","172","637566","0.0-10.0-1.70","https://mcdermottlab.mit.edu/mturk_stimuli/bjmedina/mem_exp_ind-nature_2025/sequences/isi_16/len120/seq057_len120_s15_isi-1p0_0p0_16p0.json","10.72","true","5b7pydsdq6g","","null","<span style=""font-size: 40px"">+</span>","null","","","","","","","","","",""
"","","","","","audio-button-response","173","641047","0.0-10.0-2.70","https://mcdermottlab.mit.edu/mturk_stimuli/bjmedina/mem_exp_ind-nature_2025/sequences/isi_16/len120/seq057_len120_s15_isi-1p0_0p0_16p0.json","10.72","true","5b7pydsdq6g","","2949","https://mcdermottlab.mit.edu/mturk_stimuli/bjmedina/mem_exp_ind-nature_2025/mem_stim_17.wav","2","main","","","false","mem_stim_17.wav","false","-1","","1","correct_rejection"
"","","","","","html-keyboard-response","174","641110","0.0-10.0-1.71","https://mcdermottlab.mit.edu/mturk_stimuli/bjmedina/mem_exp_ind-nature_2025/sequences/isi_16/len120/seq057_len120_s15_isi-1p0_0p0_16p0.json","10.72","true","5b7pydsdq6g","","null","<span style=""font-size: 40px"">+</span>","null","","","","","","","","","",""
"","","","","","audio-button-response","175","646206","0.0-10.0-2.71","https://mcdermottlab.mit.edu/mturk_stimuli/bjmedina/mem_exp_ind-nature_2025/sequences/isi_16/len120/seq057_len120_s15_isi-1p0_0p0_16p0.json","10.72","true","5b7pydsdq6g","","3520","https://mcdermottlab.mit.edu/mturk_stimuli/bjmedina/mem_exp_ind-nature_2025/mem_stim_68.wav","2","main","","","false","mem_stim_68.wav","false","-1","","1","correct_rejection"
"","","","","","html-keyboard-response","176","646283","0.0-10.0-1.72","https://mcdermottlab.mit.edu/mturk_stimuli/bjmedina/mem_exp_ind-nature_2025/sequences/isi_16/len120/seq057_len120_s15_isi-1p0_0p0_16p0.json","10.72","true","5b7pydsdq6g","","null","<span style=""font-size: 40px"">+</span>","null","","","","","","","","","",""
"","","","","","audio-button-response","177","649682","0.0-10.0-2.72","https://mcdermottlab.mit.edu/mturk_stimuli/bjmedina/mem_exp_ind-nature_2025/sequences/isi_16/len120/seq057_len120_s15_isi-1p0_0p0_16p0.json","10.72","true","5b7pydsdq6g","","2669","https://mcdermottlab.mit.edu/mturk_stimuli/bjmedina/mem_exp_ind-nature_2025/mem_stim_60.wav","0","main","","","false","mem_stim_60.wav","false","-1","","1","correct_rejection"
"","","","","","html-keyboard-response","178","649750","0.0-10.0-1.73","https://mcdermottlab.mit.edu/mturk_stimuli/bjmedina/mem_exp_ind-nature_2025/sequences/isi_16/len120/seq057_len120_s15_isi-1p0_0p0_16p0.json","10.72","true","5b7pydsdq6g","","null","<span style=""font-size: 40px"">+</span>","null","","","","","","","","","",""
"","","","","","audio-button-response","179","654825","0.0-10.0-2.73","https://mcdermottlab.mit.edu/mturk_stimuli/bjmedina/mem_exp_ind-nature_2025/sequences/isi_16/len120/seq057_len120_s15_isi-1p0_0p0_16p0.json","10.72","true","5b7pydsdq6g","","3568","https://mcdermottlab.mit.edu/mturk_stimuli/bjmedina/mem_exp_ind-nature_2025/mem_stim_50.wav","1","main","","","false","mem_stim_50.wav","false","-1","","0","false_alarm"
"","","","","","html-keyboard-response","180","654894","0.0-10.0-1.74","https://mcdermottlab.mit.edu/mturk_stimuli/bjmedina/mem_exp_ind-nature_2025/sequences/isi_16/len120/seq057_len120_s15_isi-1p0_0p0_16p0.json","10.72","true","5b7pydsdq6g","","null","<span style=""font-size: 40px"">+</span>","null","","","","","","","","","",""
"","","","","","audio-button-response","181","658231","0.0-10.0-2.74","https://mcdermottlab.mit.edu/mturk_stimuli/bjmedina/mem_exp_ind-nature_2025/sequences/isi_16/len120/seq057_len120_s15_isi-1p0_0p0_16p0.json","10.72","true","5b7pydsdq6g","","2619","https://mcdermottlab.mit.edu/mturk_stimuli/bjmedina/mem_exp_ind-nature_2025/mem_stim_6.wav","0","main","","","false","mem_stim_6.wav","false","-1","","1","correct_rejection"
"","","","","","html-keyboard-response","182","658294","0.0-10.0-1.75","https://mcdermottlab.mit.edu/mturk_stimuli/bjmedina/mem_exp_ind-nature_2025/sequences/isi_16/len120/seq057_len120_s15_isi-1p0_0p0_16p0.json","10.72","true","5b7pydsdq6g","","null","<span style=""font-size: 40px"">+</span>","null","","","","","","","","","",""
"","","","","","audio-button-response","183","663334","0.0-10.0-2.75","https://mcdermottlab.mit.edu/mturk_stimuli/bjmedina/mem_exp_ind-nature_2025/sequences/isi_16/len120/seq057_len120_s15_isi-1p0_0p0_16p0.json","10.72","true","5b7pydsdq6g","","2880","https://mcdermottlab.mit.edu/mturk_stimuli/bjmedina/mem_exp_ind-nature_2025/mem_stim_45.wav","0","main","","","false","mem_stim_45.wav","false","-1","","1","correct_rejection"
"","","","","","html-keyboard-response","184","663400","0.0-10.0-1.76","https://mcdermottlab.mit.edu/mturk_stimuli/bjmedina/mem_exp_ind-nature_2025/sequences/isi_16/len120/seq057_len120_s15_isi-1p0_0p0_16p0.json","10.72","true","5b7pydsdq6g","","null","<span style=""font-size: 40px"">+</span>","null","","","","","","","","","",""
"","","","","","audio-button-response","185","666452","0.0-10.0-2.76","https://mcdermottlab.mit.edu/mturk_stimuli/bjmedina/mem_exp_ind-nature_2025/sequences/isi_16/len120/seq057_len120_s15_isi-1p0_0p0_16p0.json","10.72","true","5b7pydsdq6g","","3051","https://mcdermottlab.mit.edu/mturk_stimuli/bjmedina/mem_exp_ind-nature_2025/mem_stim_45.wav","3","main","","","true","mem_stim_45.wav","true","0","","0","miss"
"","","","","","html-keyboard-response","186","666517","0.0-10.0-1.77","https://mcdermottlab.mit.edu/mturk_stimuli/bjmedina/mem_exp_ind-nature_2025/sequences/isi_16/len120/seq057_len120_s15_isi-1p0_0p0_16p0.json","10.72","true","5b7pydsdq6g","","null","<span style=""font-size: 40px"">+</span>","null","","","","","","","","","",""
"","","","","","audio-button-response","187","672077","0.0-10.0-2.77","https://mcdermottlab.mit.edu/mturk_stimuli/bjmedina/mem_exp_ind-nature_2025/sequences/isi_16/len120/seq057_len120_s15_isi-1p0_0p0_16p0.json","10.72","true","5b7pydsdq6g","","4899","https://mcdermottlab.mit.edu/mturk_stimuli/bjmedina/mem_exp_ind-nature_2025/mem_stim_47.wav","1","main","","","false","mem_stim_47.wav","false","-1","","0","false_alarm"
"","","","","","html-keyboard-response","188","672151","0.0-10.0-1.78","https://mcdermottlab.mit.edu/mturk_stimuli/bjmedina/mem_exp_ind-nature_2025/sequences/isi_16/len120/seq057_len120_s15_isi-1p0_0p0_16p0.json","10.72","true","5b7pydsdq6g","","null","<span style=""font-size: 40px"">+</span>","null","","","","","","","","","",""
"","","","","","audio-button-response","189","674722","0.0-10.0-2.78","https://mcdermottlab.mit.edu/mturk_stimuli/bjmedina/mem_exp_ind-nature_2025/sequences/isi_16/len120/seq057_len120_s15_isi-1p0_0p0_16p0.json","10.72","true","5b7pydsdq6g","","2571","https://mcdermottlab.mit.edu/mturk_stimuli/bjmedina/mem_exp_ind-nature_2025/mem_stim_47.wav","3","main","","","true","mem_stim_47.wav","true","0","","0","miss"
"","","","","","html-keyboard-response","190","674784","0.0-10.0-1.79","https://mcdermottlab.mit.edu/mturk_stimuli/bjmedina/mem_exp_ind-nature_2025/sequences/isi_16/len120/seq057_len120_s15_isi-1p0_0p0_16p0.json","10.72","true","5b7pydsdq6g","","null","<span style=""font-size: 40px"">+</span>","null","","","","","","","","","",""
"","","","","","audio-button-response","191","678340","0.0-10.0-2.79","https://mcdermottlab.mit.edu/mturk_stimuli/bjmedina/mem_exp_ind-nature_2025/sequences/isi_16/len120/seq057_len120_s15_isi-1p0_0p0_16p0.json","10.72","true","5b7pydsdq6g","","2851","https://mcdermottlab.mit.edu/mturk_stimuli/bjmedina/mem_exp_ind-nature_2025/mem_stim_61.wav","0","main","","","false","mem_stim_61.wav","false","-1","","1","correct_rejection"
"","","","","","html-keyboard-response","192","678417","0.0-10.0-1.80","https://mcdermottlab.mit.edu/mturk_stimuli/bjmedina/mem_exp_ind-nature_2025/sequences/isi_16/len120/seq057_len120_s15_isi-1p0_0p0_16p0.json","10.72","true","5b7pydsdq6g","","null","<span style=""font-size: 40px"">+</span>","null","","","","","","","","","",""
"","","","","","audio-button-response","193","681570","0.0-10.0-2.80","https://mcdermottlab.mit.edu/mturk_stimuli/bjmedina/mem_exp_ind-nature_2025/sequences/isi_16/len120/seq057_len120_s15_isi-1p0_0p0_16p0.json","10.72","true","5b7pydsdq6g","","2581","https://mcdermottlab.mit.edu/mturk_stimuli/bjmedina/mem_exp_ind-nature_2025/mem_stim_7.wav","0","main","","","false","mem_stim_7.wav","false","-1","","1","correct_rejection"
"","","","","","html-keyboard-response","194","681634","0.0-10.0-1.81","https://mcdermottlab.mit.edu/mturk_stimuli/bjmedina/mem_exp_ind-nature_2025/sequences/isi_16/len120/seq057_len120_s15_isi-1p0_0p0_16p0.json","10.72","true","5b7pydsdq6g","","null","<span style=""font-size: 40px"">+</span>","null","","","","","","","","","",""
"","","","","","audio-button-response","195","686026","0.0-10.0-2.81","https://mcdermottlab.mit.edu/mturk_stimuli/bjmedina/mem_exp_ind-nature_2025/sequences/isi_16/len120/seq057_len120_s15_isi-1p0_0p0_16p0.json","10.72","true","5b7pydsdq6g","","3880","https://mcdermottlab.mit.edu/mturk_stimuli/bjmedina/mem_exp_ind-nature_2025/mem_stim_57.wav","0","main","","","false","mem_stim_57.wav","false","-1","","1","correct_rejection"
"","","","","","html-keyboard-response","196","686099","0.0-10.0-1.82","https://mcdermottlab.mit.edu/mturk_stimuli/bjmedina/mem_exp_ind-nature_2025/sequences/isi_16/len120/seq057_len120_s15_isi-1p0_0p0_16p0.json","10.72","true","5b7pydsdq6g","","null","<span style=""font-size: 40px"">+</span>","null","","","","","","","","","",""
"","","","","","audio-button-response","197","689860","0.0-10.0-2.82","https://mcdermottlab.mit.edu/mturk_stimuli/bjmedina/mem_exp_ind-nature_2025/sequences/isi_16/len120/seq057_len120_s15_isi-1p0_0p0_16p0.json","10.72","true","5b7pydsdq6g","","3240","https://mcdermottlab.mit.edu/mturk_stimuli/bjmedina/mem_exp_ind-nature_2025/mem_stim_4.wav","2","main","","","false","mem_stim_4.wav","false","-1","","1","correct_rejection"
"","","","","","html-keyboard-response","198","689934","0.0-10.0-1.83","https://mcdermottlab.mit.edu/mturk_stimuli/bjmedina/mem_exp_ind-nature_2025/sequences/isi_16/len120/seq057_len120_s15_isi-1p0_0p0_16p0.json","10.72","true","5b7pydsdq6g","","null","<span style=""font-size: 40px"">+</span>","null","","","","","","","","","",""
"","","","","","audio-button-response","199","697971","0.0-10.0-2.83","https://mcdermottlab.mit.edu/mturk_stimuli/bjmedina/mem_exp_ind-nature_2025/sequences/isi_16/len120/seq057_len120_s15_isi-1p0_0p0_16p0.json","10.72","true","5b7pydsdq6g","","7509","https://mcdermottlab.mit.edu/mturk_stimuli/bjmedina/mem_exp_ind-nature_2025/mem_stim_66.wav","2","main","","","false","mem_stim_66.wav","false","-1","","1","correct_rejection"
"","","","","","html-keyboard-response","200","698044","0.0-10.0-1.84","https://mcdermottlab.mit.edu/mturk_stimuli/bjmedina/mem_exp_ind-nature_2025/sequences/isi_16/len120/seq057_len120_s15_isi-1p0_0p0_16p0.json","10.72","true","5b7pydsdq6g","","null","<span style=""font-size: 40px"">+</span>","null","","","","","","","","","",""
"","","","","","audio-button-response","201","703433","0.0-10.0-2.84","https://mcdermottlab.mit.edu/mturk_stimuli/bjmedina/mem_exp_ind-nature_2025/sequences/isi_16/len120/seq057_len120_s15_isi-1p0_0p0_16p0.json","10.72","true","5b7pydsdq6g","","4659","https://mcdermottlab.mit.edu/mturk_stimuli/bjmedina/mem_exp_ind-nature_2025/mem_stim_21.wav","1","main","","","false","mem_stim_21.wav","false","-1","","0","false_alarm"
"","","","","","html-keyboard-response","202","703501","0.0-10.0-1.85","https://mcdermottlab.mit.edu/mturk_stimuli/bjmedina/mem_exp_ind-nature_2025/sequences/isi_16/len120/seq057_len120_s15_isi-1p0_0p0_16p0.json","10.72","true","5b7pydsdq6g","","null","<span style=""font-size: 40px"">+</span>","null","","","","","","","","","",""
"","","","","","audio-button-response","203","707085","0.0-10.0-2.85","https://mcdermottlab.mit.edu/mturk_stimuli/bjmedina/mem_exp_ind-nature_2025/sequences/isi_16/len120/seq057_len120_s15_isi-1p0_0p0_16p0.json","10.72","true","5b7pydsdq6g","","2971","https://mcdermottlab.mit.edu/mturk_stimuli/bjmedina/mem_exp_ind-nature_2025/mem_stim_53.wav","1","main","","","false","mem_stim_53.wav","false","-1","","0","false_alarm"
"","","","","","html-keyboard-response","204","707151","0.0-10.0-1.86","https://mcdermottlab.mit.edu/mturk_stimuli/bjmedina/mem_exp_ind-nature_2025/sequences/isi_16/len120/seq057_len120_s15_isi-1p0_0p0_16p0.json","10.72","true","5b7pydsdq6g","","null","<span style=""font-size: 40px"">+</span>","null","","","","","","","","","",""
"","","","","","audio-button-response","205","709997","0.0-10.0-2.86","https://mcdermottlab.mit.edu/mturk_stimuli/bjmedina/mem_exp_ind-nature_2025/sequences/isi_16/len120/seq057_len120_s15_isi-1p0_0p0_16p0.json","10.72","true","5b7pydsdq6g","","2851","https://mcdermottlab.mit.edu/mturk_stimuli/bjmedina/mem_exp_ind-nature_2025/mem_stim_73.wav","1","main","","","true","mem_stim_73.wav","false","16","","1","hit"
"","","","","","html-keyboard-response","206","710084","0.0-10.0-1.87","https://mcdermottlab.mit.edu/mturk_stimuli/bjmedina/mem_exp_ind-nature_2025/sequences/isi_16/len120/seq057_len120_s15_isi-1p0_0p0_16p0.json","10.72","true","5b7pydsdq6g","","null","<span style=""font-size: 40px"">+</span>","null","","","","","","","","","",""
"","","","","","audio-button-response","207","713939","0.0-10.0-2.87","https://mcdermottlab.mit.edu/mturk_stimuli/bjmedina/mem_exp_ind-nature_2025/sequences/isi_16/len120/seq057_len120_s15_isi-1p0_0p0_16p0.json","10.72","true","5b7pydsdq6g","","3421","https://mcdermottlab.mit.edu/mturk_stimuli/bjmedina/mem_exp_ind-nature_2025/mem_stim_59.wav","1","main","","","false","mem_stim_59.wav","false","-1","","0","false_alarm"
"","","","","","html-keyboard-response","208","714018","0.0-10.0-1.88","https://mcdermottlab.mit.edu/mturk_stimuli/bjmedina/mem_exp_ind-nature_2025/sequences/isi_16/len120/seq057_len120_s15_isi-1p0_0p0_16p0.json","10.72","true","5b7pydsdq6g","","null","<span style=""font-size: 40px"">+</span>","null","","","","","","","","","",""
"","","","","","audio-button-response","209","716615","0.0-10.0-2.88","https://mcdermottlab.mit.edu/mturk_stimuli/bjmedina/mem_exp_ind-nature_2025/sequences/isi_16/len120/seq057_len120_s15_isi-1p0_0p0_16p0.json","10.72","true","5b7pydsdq6g","","2589","https://mcdermottlab.mit.edu/mturk_stimuli/bjmedina/mem_exp_ind-nature_2025/mem_stim_68.wav","2","main","","","true","mem_stim_68.wav","false","16","","0","miss"
"","","","","","html-keyboard-response","210","716683","0.0-10.0-1.89","https://mcdermottlab.mit.edu/mturk_stimuli/bjmedina/mem_exp_ind-nature_2025/sequences/isi_16/len120/seq057_len120_s15_isi-1p0_0p0_16p0.json","10.72","true","5b7pydsdq6g","","null","<span style=""font-size: 40px"">+</span>","null","","","","","","","","","",""
"","","","","","audio-button-response","211","720840","0.0-10.0-2.89","https://mcdermottlab.mit.edu/mturk_stimuli/bjmedina/mem_exp_ind-nature_2025/sequences/isi_16/len120/seq057_len120_s15_isi-1p0_0p0_16p0.json","10.72","true","5b7pydsdq6g","","4149","https://mcdermottlab.mit.edu/mturk_stimuli/bjmedina/mem_exp_ind-nature_2025/mem_stim_60.wav","3","main","","","true","mem_stim_60.wav","false","16","","0","miss"
"","","","","","html-keyboard-response","212","720917","0.0-10.0-1.90","https://mcdermottlab.mit.edu/mturk_stimuli/bjmedina/mem_exp_ind-nature_2025/sequences/isi_16/len120/seq057_len120_s15_isi-1p0_0p0_16p0.json","10.72","true","5b7pydsdq6g","","null","<span style=""font-size: 40px"">+</span>","null","","","","","","","","","",""
"","","","","","audio-button-response","213","723400","0.0-10.0-2.90","https://mcdermottlab.mit.edu/mturk_stimuli/bjmedina/mem_exp_ind-nature_2025/sequences/isi_16/len120/seq057_len120_s15_isi-1p0_0p0_16p0.json","10.72","true","5b7pydsdq6g","","2480","https://mcdermottlab.mit.edu/mturk_stimuli/bjmedina/mem_exp_ind-nature_2025/mem_stim_50.wav","3","main","","","true","mem_stim_50.wav","false","16","","0","miss"
"","","","","","html-keyboard-response","214","723464","0.0-10.0-1.91","https://mcdermottlab.mit.edu/mturk_stimuli/bjmedina/mem_exp_ind-nature_2025/sequences/isi_16/len120/seq057_len120_s15_isi-1p0_0p0_16p0.json","10.72","true","5b7pydsdq6g","","null","<span style=""font-size: 40px"">+</span>","null","","","","","","","","","",""
"","","","","","audio-button-response","215","727946","0.0-10.0-2.91","https://mcdermottlab.mit.edu/mturk_stimuli/bjmedina/mem_exp_ind-nature_2025/sequences/isi_16/len120/seq057_len120_s15_isi-1p0_0p0_16p0.json","10.72","true","5b7pydsdq6g","","3760","https://mcdermottlab.mit.edu/mturk_stimuli/bjmedina/mem_exp_ind-nature_2025/mem_stim_5.wav","1","main","","","false","mem_stim_5.wav","false","-1","","0","false_alarm"
"","","","","","html-keyboard-response","216","728016","0.0-10.0-1.92","https://mcdermottlab.mit.edu/mturk_stimuli/bjmedina/mem_exp_ind-nature_2025/sequences/isi_16/len120/seq057_len120_s15_isi-1p0_0p0_16p0.json","10.72","true","5b7pydsdq6g","","null","<span style=""font-size: 40px"">+</span>","null","","","","","","","","","",""
"","","","","","audio-button-response","217","732118","0.0-10.0-2.92","https://mcdermottlab.mit.edu/mturk_stimuli/bjmedina/mem_exp_ind-nature_2025/sequences/isi_16/len120/seq057_len120_s15_isi-1p0_0p0_16p0.json","10.72","true","5b7pydsdq6g","","3579","https://mcdermottlab.mit.edu/mturk_stimuli/bjmedina/mem_exp_ind-nature_2025/mem_stim_16.wav","1","main","","","false","mem_stim_16.wav","false","-1","","0","false_alarm"
"","","","","","html-keyboard-response","218","732200","0.0-10.0-1.93","https://mcdermottlab.mit.edu/mturk_stimuli/bjmedina/mem_exp_ind-nature_2025/sequences/isi_16/len120/seq057_len120_s15_isi-1p0_0p0_16p0.json","10.72","true","5b7pydsdq6g","","null","<span style=""font-size: 40px"">+</span>","null","","","","","","","","","",""
"","","","","","audio-button-response","219","737713","0.0-10.0-2.93","https://mcdermottlab.mit.edu/mturk_stimuli/bjmedina/mem_exp_ind-nature_2025/sequences/isi_16/len120/seq057_len120_s15_isi-1p0_0p0_16p0.json","10.72","true","5b7pydsdq6g","","4888","https://mcdermottlab.mit.edu/mturk_stimuli/bjmedina/mem_exp_ind-nature_2025/mem_stim_76.wav","1","main","","","false","mem_stim_76.wav","false","-1","","0","false_alarm"
"","","","","","html-keyboard-response","220","737782","0.0-10.0-1.94","https://mcdermottlab.mit.edu/mturk_stimuli/bjmedina/mem_exp_ind-nature_2025/sequences/isi_16/len120/seq057_len120_s15_isi-1p0_0p0_16p0.json","10.72","true","5b7pydsdq6g","","null","<span style=""font-size: 40px"">+</span>","null","","","","","","","","","",""
"","","","","","audio-button-response","221","742759","0.0-10.0-2.94","https://mcdermottlab.mit.edu/mturk_stimuli/bjmedina/mem_exp_ind-nature_2025/sequences/isi_16/len120/seq057_len120_s15_isi-1p0_0p0_16p0.json","10.72","true","5b7pydsdq6g","","3069","https://mcdermottlab.mit.edu/mturk_stimuli/bjmedina/mem_exp_ind-nature_2025/mem_stim_26.wav","0","main","","","false","mem_stim_26.wav","false","-1","","1","correct_rejection"
"","","","","","html-keyboard-response","222","742834","0.0-10.0-1.95","https://mcdermottlab.mit.edu/mturk_stimuli/bjmedina/mem_exp_ind-nature_2025/sequences/isi_16/len120/seq057_len120_s15_isi-1p0_0p0_16p0.json","10.72","true","5b7pydsdq6g","","null","<span style=""font-size: 40px"">+</span>","null","","","","","","","","","",""
"","","","","","audio-button-response","223","746705","0.0-10.0-2.95","https://mcdermottlab.mit.edu/mturk_stimuli/bjmedina/mem_exp_ind-nature_2025/sequences/isi_16/len120/seq057_len120_s15_isi-1p0_0p0_16p0.json","10.72","true","5b7pydsdq6g","","3232","https://mcdermottlab.mit.edu/mturk_stimuli/bjmedina/mem_exp_ind-nature_2025/mem_stim_55.wav","3","main","","","false","mem_stim_55.wav","false","-1","","1","correct_rejection"
"","","","","","html-keyboard-response","224","746784","0.0-10.0-1.96","https://mcdermottlab.mit.edu/mturk_stimuli/bjmedina/mem_exp_ind-nature_2025/sequences/isi_16/len120/seq057_len120_s15_isi-1p0_0p0_16p0.json","10.72","true","5b7pydsdq6g","","null","<span style=""font-size: 40px"">+</span>","null","","","","","","","","","",""
"","","","","","audio-button-response","225","749447","0.0-10.0-2.96","https://mcdermottlab.mit.edu/mturk_stimuli/bjmedina/mem_exp_ind-nature_2025/sequences/isi_16/len120/seq057_len120_s15_isi-1p0_0p0_16p0.json","10.72","true","5b7pydsdq6g","","2661","https://mcdermottlab.mit.edu/mturk_stimuli/bjmedina/mem_exp_ind-nature_2025/mem_stim_61.wav","3","main","","","true","mem_stim_61.wav","false","16","","0","miss"
"","","","","","html-keyboard-response","226","749514","0.0-10.0-1.97","https://mcdermottlab.mit.edu/mturk_stimuli/bjmedina/mem_exp_ind-nature_2025/sequences/isi_16/len120/seq057_len120_s15_isi-1p0_0p0_16p0.json","10.72","true","5b7pydsdq6g","","null","<span style=""font-size: 40px"">+</span>","null","","","","","","","","","",""
"","","","","","audio-button-response","227","753012","0.0-10.0-2.97","https://mcdermottlab.mit.edu/mturk_stimuli/bjmedina/mem_exp_ind-nature_2025/sequences/isi_16/len120/seq057_len120_s15_isi-1p0_0p0_16p0.json","10.72","true","5b7pydsdq6g","","2901","https://mcdermottlab.mit.edu/mturk_stimuli/bjmedina/mem_exp_ind-nature_2025/mem_stim_63.wav","2","main","","","false","mem_stim_63.wav","false","-1","","1","correct_rejection"
"","","","","","html-keyboard-response","228","753084","0.0-10.0-1.98","https://mcdermottlab.mit.edu/mturk_stimuli/bjmedina/mem_exp_ind-nature_2025/sequences/isi_16/len120/seq057_len120_s15_isi-1p0_0p0_16p0.json","10.72","true","5b7pydsdq6g","","null","<span style=""font-size: 40px"">+</span>","null","","","","","","","","","",""
"","","","","","audio-button-response","229","755737","0.0-10.0-2.98","https://mcdermottlab.mit.edu/mturk_stimuli/bjmedina/mem_exp_ind-nature_2025/sequences/isi_16/len120/seq057_len120_s15_isi-1p0_0p0_16p0.json","10.72","true","5b7pydsdq6g","","2651","https://mcdermottlab.mit.edu/mturk_stimuli/bjmedina/mem_exp_ind-nature_2025/mem_stim_57.wav","2","main","","","true","mem_stim_57.wav","false","16","","0","miss"
"","","","","","html-keyboard-response","230","755814","0.0-10.0-1.99","https://mcdermottlab.mit.edu/mturk_stimuli/bjmedina/mem_exp_ind-nature_2025/sequences/isi_16/len120/seq057_len120_s15_isi-1p0_0p0_16p0.json","10.72","true","5b7pydsdq6g","","null","<span style=""font-size: 40px"">+</span>","null","","","","","","","","","",""
"","","","","","audio-button-response","231","759597","0.0-10.0-2.99","https://mcdermottlab.mit.edu/mturk_stimuli/bjmedina/mem_exp_ind-nature_2025/sequences/isi_16/len120/seq057_len120_s15_isi-1p0_0p0_16p0.json","10.72","true","5b7pydsdq6g","","3099","https://mcdermottlab.mit.edu/mturk_stimuli/bjmedina/mem_exp_ind-nature_2025/mem_stim_10.wav","2","main","","","false","mem_stim_10.wav","false","-1","","1","correct_rejection"
"","","","","","html-keyboard-response","232","759667","0.0-10.0-1.100","https://mcdermottlab.mit.edu/mturk_stimuli/bjmedina/mem_exp_ind-nature_2025/sequences/isi_16/len120/seq057_len120_s15_isi-1p0_0p0_16p0.json","10.72","true","5b7pydsdq6g","","null","<span style=""font-size: 40px"">+</span>","null","","","","","","","","","",""
"","","","","","audio-button-response","233","762641","0.0-10.0-2.100","https://mcdermottlab.mit.edu/mturk_stimuli/bjmedina/mem_exp_ind-nature_2025/sequences/isi_16/len120/seq057_len120_s15_isi-1p0_0p0_16p0.json","10.72","true","5b7pydsdq6g","","2971","https://mcdermottlab.mit.edu/mturk_stimuli/bjmedina/mem_exp_ind-nature_2025/mem_stim_66.wav","3","main","","","true","mem_stim_66.wav","false","16","","0","miss"
"","","","","","html-keyboard-response","234","762718","0.0-10.0-1.101","https://mcdermottlab.mit.edu/mturk_stimuli/bjmedina/mem_exp_ind-nature_2025/sequences/isi_16/len120/seq057_len120_s15_isi-1p0_0p0_16p0.json","10.72","true","5b7pydsdq6g","","null","<span style=""font-size: 40px"">+</span>","null","","","","","","","","","",""
"","","","","","audio-button-response","235","766167","0.0-10.0-2.101","https://mcdermottlab.mit.edu/mturk_stimuli/bjmedina/mem_exp_ind-nature_2025/sequences/isi_16/len120/seq057_len120_s15_isi-1p0_0p0_16p0.json","10.72","true","5b7pydsdq6g","","2821","https://mcdermottlab.mit.edu/mturk_stimuli/bjmedina/mem_exp_ind-nature_2025/mem_stim_74.wav","1","main","","","false","mem_stim_74.wav","false","-1","","0","false_alarm"
"","","","","","html-keyboard-response","236","766251","0.0-10.0-1.102","https://mcdermottlab.mit.edu/mturk_stimuli/bjmedina/mem_exp_ind-nature_2025/sequences/isi_16/len120/seq057_len120_s15_isi-1p0_0p0_16p0.json","10.72","true","5b7pydsdq6g","","null","<span style=""font-size: 40px"">+</span>","null","","","","","","","","","",""
"","","","","","audio-button-response","237","768790","0.0-10.0-2.102","https://mcdermottlab.mit.edu/mturk_stimuli/bjmedina/mem_exp_ind-nature_2025/sequences/isi_16/len120/seq057_len120_s15_isi-1p0_0p0_16p0.json","10.72","true","5b7pydsdq6g","","2539","https://mcdermottlab.mit.edu/mturk_stimuli/bjmedina/mem_exp_ind-nature_2025/mem_stim_53.wav","2","main","","","true","mem_stim_53.wav","false","16","","0","miss"
"","","","","","html-keyboard-response","238","768864","0.0-10.0-1.103","https://mcdermottlab.mit.edu/mturk_stimuli/bjmedina/mem_exp_ind-nature_2025/sequences/isi_16/len120/seq057_len120_s15_isi-1p0_0p0_16p0.json","10.72","true","5b7pydsdq6g","","null","<span style=""font-size: 40px"">+</span>","null","","","","","","","","","",""
"","","","","","audio-button-response","239","772246","0.0-10.0-2.103","https://mcdermottlab.mit.edu/mturk_stimuli/bjmedina/mem_exp_ind-nature_2025/sequences/isi_16/len120/seq057_len120_s15_isi-1p0_0p0_16p0.json","10.72","true","5b7pydsdq6g","","2789","https://mcdermottlab.mit.edu/mturk_stimuli/bjmedina/mem_exp_ind-nature_2025/mem_stim_31.wav","2","main","","","false","mem_stim_31.wav","false","-1","","1","correct_rejection"
"","","","","","html-keyboard-response","240","772316","0.0-10.0-1.104","https://mcdermottlab.mit.edu/mturk_stimuli/bjmedina/mem_exp_ind-nature_2025/sequences/isi_16/len120/seq057_len120_s15_isi-1p0_0p0_16p0.json","10.72","true","5b7pydsdq6g","","null","<span style=""font-size: 40px"">+</span>","null","","","","","","","","","",""
"","","","","","audio-button-response","241","775044","0.0-10.0-2.104","https://mcdermottlab.mit.edu/mturk_stimuli/bjmedina/mem_exp_ind-nature_2025/sequences/isi_16/len120/seq057_len120_s15_isi-1p0_0p0_16p0.json","10.72","true","5b7pydsdq6g","","2720","https://mcdermottlab.mit.edu/mturk_stimuli/bjmedina/mem_exp_ind-nature_2025/mem_stim_59.wav","3","main","","","true","mem_stim_59.wav","false","16","","0","miss"
"","","","","","html-keyboard-response","242","775114","0.0-10.0-1.105","https://mcdermottlab.mit.edu/mturk_stimuli/bjmedina/mem_exp_ind-nature_2025/sequences/isi_16/len120/seq057_len120_s15_isi-1p0_0p0_16p0.json","10.72","true","5b7pydsdq6g","","null","<span style=""font-size: 40px"">+</span>","null","","","","","","","","","",""
"","","","","","audio-button-response","243","778852","0.0-10.0-2.105","https://mcdermottlab.mit.edu/mturk_stimuli/bjmedina/mem_exp_ind-nature_2025/sequences/isi_16/len120/seq057_len120_s15_isi-1p0_0p0_16p0.json","10.72","true","5b7pydsdq6g","","3029","https://mcdermottlab.mit.edu/mturk_stimuli/bjmedina/mem_exp_ind-nature_2025/mem_stim_40.wav","0","main","","","false","mem_stim_40.wav","false","-1","","1","correct_rejection"
"","","","","","html-keyboard-response","244","778933","0.0-10.0-1.106","https://mcdermottlab.mit.edu/mturk_stimuli/bjmedina/mem_exp_ind-nature_2025/sequences/isi_16/len120/seq057_len120_s15_isi-1p0_0p0_16p0.json","10.72","true","5b7pydsdq6g","","null","<span style=""font-size: 40px"">+</span>","null","","","","","","","","","",""
"","","","","","audio-button-response","245","789665","0.0-10.0-2.106","https://mcdermottlab.mit.edu/mturk_stimuli/bjmedina/mem_exp_ind-nature_2025/sequences/isi_16/len120/seq057_len120_s15_isi-1p0_0p0_16p0.json","10.72","true","5b7pydsdq6g","","10728","https://mcdermottlab.mit.edu/mturk_stimuli/bjmedina/mem_exp_ind-nature_2025/mem_stim_40.wav","0","main","","","true","mem_stim_40.wav","true","0","","0","miss"
"","","","","","html-keyboard-response","246","789733","0.0-10.0-1.107","https://mcdermottlab.mit.edu/mturk_stimuli/bjmedina/mem_exp_ind-nature_2025/sequences/isi_16/len120/seq057_len120_s15_isi-1p0_0p0_16p0.json","10.72","true","5b7pydsdq6g","","null","<span style=""font-size: 40px"">+</span>","null","","","","","","","","","",""
"","","","","","audio-button-response","247","793106","0.0-10.0-2.107","https://mcdermottlab.mit.edu/mturk_stimuli/bjmedina/mem_exp_ind-nature_2025/sequences/isi_16/len120/seq057_len120_s15_isi-1p0_0p0_16p0.json","10.72","true","5b7pydsdq6g","","2629","https://mcdermottlab.mit.edu/mturk_stimuli/bjmedina/mem_exp_ind-nature_2025/mem_stim_38.wav","1","main","","","false","mem_stim_38.wav","false","-1","","0","false_alarm"
"","","","","","html-keyboard-response","248","793183","0.0-10.0-1.108","https://mcdermottlab.mit.edu/mturk_stimuli/bjmedina/mem_exp_ind-nature_2025/sequences/isi_16/len120/seq057_len120_s15_isi-1p0_0p0_16p0.json","10.72","true","5b7pydsdq6g","","null","<span style=""font-size: 40px"">+</span>","null","","","","","","","","","",""
"","","","","","audio-button-response","249","796684","0.0-10.0-2.108","https://mcdermottlab.mit.edu/mturk_stimuli/bjmedina/mem_exp_ind-nature_2025/sequences/isi_16/len120/seq057_len120_s15_isi-1p0_0p0_16p0.json","10.72","true","5b7pydsdq6g","","2880","https://mcdermottlab.mit.edu/mturk_stimuli/bjmedina/mem_exp_ind-nature_2025/mem_stim_3.wav","0","main","","","false","mem_stim_3.wav","false","-1","","1","correct_rejection"
"","","","","","html-keyboard-response","250","796764","0.0-10.0-1.109","https://mcdermottlab.mit.edu/mturk_stimuli/bjmedina/mem_exp_ind-nature_2025/sequences/isi_16/len120/seq057_len120_s15_isi-1p0_0p0_16p0.json","10.72","true","5b7pydsdq6g","","null","<span style=""font-size: 40px"">+</span>","null","","","","","","","","","",""
"","","","","","audio-button-response","251","799931","0.0-10.0-2.109","https://mcdermottlab.mit.edu/mturk_stimuli/bjmedina/mem_exp_ind-nature_2025/sequences/isi_16/len120/seq057_len120_s15_isi-1p0_0p0_16p0.json","10.72","true","5b7pydsdq6g","","2661","https://mcdermottlab.mit.edu/mturk_stimuli/bjmedina/mem_exp_ind-nature_2025/mem_stim_0.wav","0","main","","","false","mem_stim_0.wav","false","-1","","1","correct_rejection"
"","","","","","html-keyboard-response","252","799999","0.0-10.0-1.110","https://mcdermottlab.mit.edu/mturk_stimuli/bjmedina/mem_exp_ind-nature_2025/sequences/isi_16/len120/seq057_len120_s15_isi-1p0_0p0_16p0.json","10.72","true","5b7pydsdq6g","","null","<span style=""font-size: 40px"">+</span>","null","","","","","","","","","",""
"","","","","","audio-button-response","253","802517","0.0-10.0-2.110","https://mcdermottlab.mit.edu/mturk_stimuli/bjmedina/mem_exp_ind-nature_2025/sequences/isi_16/len120/seq057_len120_s15_isi-1p0_0p0_16p0.json","10.72","true","5b7pydsdq6g","","2520","https://mcdermottlab.mit.edu/mturk_stimuli/bjmedina/mem_exp_ind-nature_2025/mem_stim_76.wav","3","main","","","true","mem_stim_76.wav","false","16","","0","miss"
"","","","","","html-keyboard-response","254","802594","0.0-10.0-1.111","https://mcdermottlab.mit.edu/mturk_stimuli/bjmedina/mem_exp_ind-nature_2025/sequences/isi_16/len120/seq057_len120_s15_isi-1p0_0p0_16p0.json","10.72","true","5b7pydsdq6g","","null","<span style=""font-size: 40px"">+</span>","null","","","","","","","","","",""
"","","","","","audio-button-response","255","806286","0.0-10.0-2.111","https://mcdermottlab.mit.edu/mturk_stimuli/bjmedina/mem_exp_ind-nature_2025/sequences/isi_16/len120/seq057_len120_s15_isi-1p0_0p0_16p0.json","10.72","true","5b7pydsdq6g","","3069","https://mcdermottlab.mit.edu/mturk_stimuli/bjmedina/mem_exp_ind-nature_2025/mem_stim_8.wav","0","main","","","false","mem_stim_8.wav","false","-1","","1","correct_rejection"
"","","","","","html-keyboard-response","256","806348","0.0-10.0-1.112","https://mcdermottlab.mit.edu/mturk_stimuli/bjmedina/mem_exp_ind-nature_2025/sequences/isi_16/len120/seq057_len120_s15_isi-1p0_0p0_16p0.json","10.72","true","5b7pydsdq6g","","null","<span style=""font-size: 40px"">+</span>","null","","","","","","","","","",""
"","","","","","audio-button-response","257","809270","0.0-10.0-2.112","https://mcdermottlab.mit.edu/mturk_stimuli/bjmedina/mem_exp_ind-nature_2025/sequences/isi_16/len120/seq057_len120_s15_isi-1p0_0p0_16p0.json","10.72","true","5b7pydsdq6g","","2920","https://mcdermottlab.mit.edu/mturk_stimuli/bjmedina/mem_exp_ind-nature_2025/mem_stim_55.wav","3","main","","","true","mem_stim_55.wav","false","16","","0","miss"
"","","","","","html-keyboard-response","258","809351","0.0-10.0-1.113","https://mcdermottlab.mit.edu/mturk_stimuli/bjmedina/mem_exp_ind-nature_2025/sequences/isi_16/len120/seq057_len120_s15_isi-1p0_0p0_16p0.json","10.72","true","5b7pydsdq6g","","null","<span style=""font-size: 40px"">+</span>","null","","","","","","","","","",""
"","","","","","audio-button-response","259","812599","0.0-10.0-2.113","https://mcdermottlab.mit.edu/mturk_stimuli/bjmedina/mem_exp_ind-nature_2025/sequences/isi_16/len120/seq057_len120_s15_isi-1p0_0p0_16p0.json","10.72","true","5b7pydsdq6g","","2600","https://mcdermottlab.mit.edu/mturk_stimuli/bjmedina/mem_exp_ind-nature_2025/mem_stim_19.wav","0","main","","","false","mem_stim_19.wav","false","-1","","1","correct_rejection"
"","","","","","html-keyboard-response","260","812666","0.0-10.0-1.114","https://mcdermottlab.mit.edu/mturk_stimuli/bjmedina/mem_exp_ind-nature_2025/sequences/isi_16/len120/seq057_len120_s15_isi-1p0_0p0_16p0.json","10.72","true","5b7pydsdq6g","","null","<span style=""font-size: 40px"">+</span>","null","","","","","","","","","",""
"","","","","","audio-button-response","261","815975","0.0-10.0-2.114","https://mcdermottlab.mit.edu/mturk_stimuli/bjmedina/mem_exp_ind-nature_2025/sequences/isi_16/len120/seq057_len120_s15_isi-1p0_0p0_16p0.json","10.72","true","5b7pydsdq6g","","3312","https://mcdermottlab.mit.edu/mturk_stimuli/bjmedina/mem_exp_ind-nature_2025/mem_stim_63.wav","2","main","","","true","mem_stim_63.wav","false","16","","0","miss"
"","","","","","html-keyboard-response","262","816043","0.0-10.0-1.115","https://mcdermottlab.mit.edu/mturk_stimuli/bjmedina/mem_exp_ind-nature_2025/sequences/isi_16/len120/seq057_len120_s15_isi-1p0_0p0_16p0.json","10.72","true","5b7pydsdq6g","","null","<span style=""font-size: 40px"">+</span>","null","","","","","","","","","",""
"","","","","","audio-button-response","263","819796","0.0-10.0-2.115","https://mcdermottlab.mit.edu/mturk_stimuli/bjmedina/mem_exp_ind-nature_2025/sequences/isi_16/len120/seq057_len120_s15_isi-1p0_0p0_16p0.json","10.72","true","5b7pydsdq6g","","3120","https://mcdermottlab.mit.edu/mturk_stimuli/bjmedina/mem_exp_ind-nature_2025/mem_stim_48.wav","0","main","","","false","mem_stim_48.wav","false","-1","","1","correct_rejection"
"","","","","","html-keyboard-response","264","819866","0.0-10.0-1.116","https://mcdermottlab.mit.edu/mturk_stimuli/bjmedina/mem_exp_ind-nature_2025/sequences/isi_16/len120/seq057_len120_s15_isi-1p0_0p0_16p0.json","10.72","true","5b7pydsdq6g","","null","<span style=""font-size: 40px"">+</span>","null","","","","","","","","","",""
