"success","timeout","failed_images","failed_audio","failed_video","trial_type","trial_index","time_elapsed","internal_node_id","sequence_file","pay","passed_hc","view_history","rt","stimulus","response","stim_type","hc_answer","correct_hc","repeat","yt_id","catch","isi","type","is_correct","response_type"
"true","false","[]","[]","[]","preload","0","1741","0.0-0.0","https://mcdermottlab.mit.edu/mturk_stimuli/bjmedina/mem_exp_ind-nature_2025/sequences/isi_16/len120/seq058_len120_s15_isi-1p0_0p0_16p0.json","0.25","true","","","","","","","","","","","","","",""
"","","","","","instructions","1","21822","0.0-1.0","https://mcdermottlab.mit.edu/mturk_stimuli/bjmedina/mem_exp_ind-nature_2025/sequences/isi_16/len120/seq058_len120_s15_isi-1p0_0p0_16p0.json","0.25","true","[{""page_index"":0,""viewing_time"":20078}]","20078","","","","","","","","","","","",""
"","","","","","instructions","2","38679","0.0-2.0","https://mcdermottlab.mit.edu/mturk_stimuli/bjmedina/mem_exp_ind-nature_2025/sequences/isi_16/len120/seq058_len120_s15_isi-1p0_0p0_16p0.json","0.25","true","[{""page_index"":0,""viewing_time"":16856}]","16856","","","","","","","","","","","",""
"","","","","","audio-button-response","3","431563","0.0-3.0-0.0","https://mcdermottlab.mit.edu/mturk_stimuli/bjmedina/mem_exp_ind-nature_2025/sequences/isi_16/len120/seq058_len120_s15_isi-1p0_0p0_16p0.json","0.25","true","","383131","https://mcdermottlab.mit.edu/bjmedina/experiments/mem_exp_v01/assets/noise_calib_stim.wav","0","","","","","","","","","",""
"","","","","","audio-button-response","4","447396","0.0-3.1-0.1","https://mcdermottlab.mit.edu/mturk_stimuli/bjmedina/mem_exp_ind-nature_2025/sequences/isi_16/len120/seq058_len120_s15_isi-1p0_0p0_16p0.json","0.25","true","","15611","https://mcdermottlab.mit.edu/bjmedina/experiments/mem_exp_v01/assets/noise_calib_stim.wav","0","","","","","","","","","",""
"","","","","","audio-button-response","5","451961","0.0-3.2-0.2","https://mcdermottlab.mit.edu/mturk_stimuli/bjmedina/mem_exp_ind-nature_2025/sequences/isi_16/len120/seq058_len120_s15_isi-1p0_0p0_16p0.json","0.25","true","","4560","https://mcdermottlab.mit.edu/bjmedina/experiments/mem_exp_v01/assets/noise_calib_stim.wav","1","","","","","","","","","",""
"","","","","","instructions","6","476371","0.0-4.0","https://mcdermottlab.mit.edu/mturk_stimuli/bjmedina/mem_exp_ind-nature_2025/sequences/isi_16/len120/seq058_len120_s15_isi-1p0_0p0_16p0.json","0.25","true","[{""page_index"":0,""viewing_time"":24408}]","24409","","","","","","","","","","","",""
"","","","","","audio-button-response","7","484649","0.0-5.0-0.0","https://mcdermottlab.mit.edu/mturk_stimuli/bjmedina/mem_exp_ind-nature_2025/sequences/isi_16/len120/seq058_len120_s15_isi-1p0_0p0_16p0.json","0.25","true","","5341","https://mcdermottlab.mit.edu/bjmedina/experiments/mem_exp_v01/assets/antiphase_HC_SIO.wav","0","hc","1","1","","","","","","",""
"","","","","","audio-button-response","8","490703","0.0-5.0-0.1","https://mcdermottlab.mit.edu/mturk_stimuli/bjmedina/mem_exp_ind-nature_2025/sequences/isi_16/len120/seq058_len120_s15_isi-1p0_0p0_16p0.json","0.25","true","","4459","https://mcdermottlab.mit.edu/bjmedina/experiments/mem_exp_v01/assets/antiphase_HC_OSI.wav","0","hc","2","0","","","","","","",""
"","","","","","audio-button-response","9","498144","0.0-5.0-0.2","https://mcdermottlab.mit.edu/mturk_stimuli/bjmedina/mem_exp_ind-nature_2025/sequences/isi_16/len120/seq058_len120_s15_isi-1p0_0p0_16p0.json","0.25","true","","4288","https://mcdermottlab.mit.edu/bjmedina/experiments/mem_exp_v01/assets/antiphase_HC_IOS.wav","2","hc","3","1","","","","","","",""
"","","","","","audio-button-response","10","504265","0.0-5.0-0.3","https://mcdermottlab.mit.edu/mturk_stimuli/bjmedina/mem_exp_ind-nature_2025/sequences/isi_16/len120/seq058_len120_s15_isi-1p0_0p0_16p0.json","0.25","true","","4299","https://mcdermottlab.mit.edu/bjmedina/experiments/mem_exp_v01/assets/antiphase_HC_OIS.wav","2","hc","3","1","","","","","","",""
"","","","","","audio-button-response","11","511236","0.0-5.0-0.4","https://mcdermottlab.mit.edu/mturk_stimuli/bjmedina/mem_exp_ind-nature_2025/sequences/isi_16/len120/seq058_len120_s15_isi-1p0_0p0_16p0.json","0.25","true","","3920","https://mcdermottlab.mit.edu/bjmedina/experiments/mem_exp_v01/assets/antiphase_HC_ISO.wav","1","hc","2","1","","","","","","",""
"","","","","","audio-button-response","12","517063","0.0-5.0-0.5","https://mcdermottlab.mit.edu/mturk_stimuli/bjmedina/mem_exp_ind-nature_2025/sequences/isi_16/len120/seq058_len120_s15_isi-1p0_0p0_16p0.json","0.25","true","","4128","https://mcdermottlab.mit.edu/bjmedina/experiments/mem_exp_v01/assets/antiphase_HC_SOI.wav","0","hc","1","1","","","","","","",""
"","","","","","html-keyboard-response","13","520517","0.0-6.0","https://mcdermottlab.mit.edu/mturk_stimuli/bjmedina/mem_exp_ind-nature_2025/sequences/isi_16/len120/seq058_len120_s15_isi-1p0_0p0_16p0.json","0.25","true","","3451","<h1>You have finished the LOUDNESS task!</h1> <p>Press space to continue</p>"," ","","","","","","","","","",""
"","","","","","instructions","14","693953","0.0-7.0","https://mcdermottlab.mit.edu/mturk_stimuli/bjmedina/mem_exp_ind-nature_2025/sequences/isi_16/len120/seq058_len120_s15_isi-1p0_0p0_16p0.json","0.25","true","[{""page_index"":0,""viewing_time"":70844},{""page_index"":1,""viewing_time"":27565},{""page_index"":2,""viewing_time"":63317},{""page_index"":3,""viewing_time"":11709}]","173435","","","","","","","","","","","",""
"","","","","","html-keyboard-response","15","694007","0.0-8.0-0.0","https://mcdermottlab.mit.edu/mturk_stimuli/bjmedina/mem_exp_ind-nature_2025/sequences/isi_16/len120/seq058_len120_s15_isi-1p0_0p0_16p0.json","0.25","true","","null","<span style=""font-size: 40px"">+</span>","null","fixation","","","","","","","","",""
"","","","","","audio-button-response","16","704307","0.0-8.0-1.0","https://mcdermottlab.mit.edu/mturk_stimuli/bjmedina/mem_exp_ind-nature_2025/sequences/isi_16/len120/seq058_len120_s15_isi-1p0_0p0_16p0.json","0.25","true","","7029","https://mcdermottlab.mit.edu/mturk_stimuli/bjmedina/mem_exp_v05/mem_stim_1023_f32.wav","0","demo","","","0","","","","","",""
"","","","","","html-keyboard-response","17","704373","0.0-8.0-0.1","https://mcdermottlab.mit.edu/mturk_stimuli/bjmedina/mem_exp_ind-nature_2025/sequences/isi_16/len120/seq058_len120_s15_isi-1p0_0p0_16p0.json","0.25","true","","null","<span style=""font-size: 40px"">+</span>","null","fixation","","","","","","","","",""
"","","","","","audio-button-response","18","712199","0.0-8.0-1.1","https://mcdermottlab.mit.edu/mturk_stimuli/bjmedina/mem_exp_ind-nature_2025/sequences/isi_16/len120/seq058_len120_s15_isi-1p0_0p0_16p0.json","0.25","true","","6011","https://mcdermottlab.mit.edu/mturk_stimuli/bjmedina/mem_exp_v05/mem_stim_1022_f32.wav","0","demo","","","0","","","","","",""
"","","","","","html-keyboard-response","19","712250","0.0-8.0-0.2","https://mcdermottlab.mit.edu/mturk_stimuli/bjmedina/mem_exp_ind-nature_2025/sequences/isi_16/len120/seq058_len120_s15_isi-1p0_0p0_16p0.json","0.25","true","","null","<span style=""font-size: 40px"">+</span>","null","fixation","","","","","","","","",""
"","","","","","audio-button-response","20","714757","0.0-8.0-1.2","https://mcdermottlab.mit.edu/mturk_stimuli/bjmedina/mem_exp_ind-nature_2025/sequences/isi_16/len120/seq058_len120_s15_isi-1p0_0p0_16p0.json","0.25","true","","2512","https://mcdermottlab.mit.edu/mturk_stimuli/bjmedina/mem_exp_v05/mem_stim_1022_f32.wav","2","demo","","","1","","","","","",""
"","","","","","html-keyboard-response","21","714813","0.0-8.0-0.3","https://mcdermottlab.mit.edu/mturk_stimuli/bjmedina/mem_exp_ind-nature_2025/sequences/isi_16/len120/seq058_len120_s15_isi-1p0_0p0_16p0.json","0.25","true","","null","<span style=""font-size: 40px"">+</span>","null","fixation","","","","","","","","",""
"","","","","","audio-button-response","22","722628","0.0-8.0-1.3","https://mcdermottlab.mit.edu/mturk_stimuli/bjmedina/mem_exp_ind-nature_2025/sequences/isi_16/len120/seq058_len120_s15_isi-1p0_0p0_16p0.json","0.25","true","","4491","https://mcdermottlab.mit.edu/mturk_stimuli/bjmedina/mem_exp_v05/mem_stim_1021_f32.wav","1","demo","","","0","","","","","",""
"","","","","","html-keyboard-response","23","722684","0.0-8.0-0.4","https://mcdermottlab.mit.edu/mturk_stimuli/bjmedina/mem_exp_ind-nature_2025/sequences/isi_16/len120/seq058_len120_s15_isi-1p0_0p0_16p0.json","0.25","true","","null","<span style=""font-size: 40px"">+</span>","null","fixation","","","","","","","","",""
"","","","","","audio-button-response","24","725219","0.0-8.0-1.4","https://mcdermottlab.mit.edu/mturk_stimuli/bjmedina/mem_exp_ind-nature_2025/sequences/isi_16/len120/seq058_len120_s15_isi-1p0_0p0_16p0.json","0.25","true","","2531","https://mcdermottlab.mit.edu/mturk_stimuli/bjmedina/mem_exp_v05/mem_stim_1023_f32.wav","1","demo","","","1","","","","","",""
"","","","","","html-keyboard-response","25","725279","0.0-8.0-0.5","https://mcdermottlab.mit.edu/mturk_stimuli/bjmedina/mem_exp_ind-nature_2025/sequences/isi_16/len120/seq058_len120_s15_isi-1p0_0p0_16p0.json","0.25","true","","null","<span style=""font-size: 40px"">+</span>","null","fixation","","","","","","","","",""
"","","","","","audio-button-response","26","730053","0.0-8.0-1.5","https://mcdermottlab.mit.edu/mturk_stimuli/bjmedina/mem_exp_ind-nature_2025/sequences/isi_16/len120/seq058_len120_s15_isi-1p0_0p0_16p0.json","0.25","true","","3019","https://mcdermottlab.mit.edu/mturk_stimuli/bjmedina/mem_exp_v05/mem_stim_1020_f32.wav","0","demo","","","0","","","","","",""
"","","","","","html-keyboard-response","27","730113","0.0-8.0-0.6","https://mcdermottlab.mit.edu/mturk_stimuli/bjmedina/mem_exp_ind-nature_2025/sequences/isi_16/len120/seq058_len120_s15_isi-1p0_0p0_16p0.json","0.25","true","","null","<span style=""font-size: 40px"">+</span>","null","fixation","","","","","","","","",""
"","","","","","audio-button-response","28","733569","0.0-8.0-1.6","https://mcdermottlab.mit.edu/mturk_stimuli/bjmedina/mem_exp_ind-nature_2025/sequences/isi_16/len120/seq058_len120_s15_isi-1p0_0p0_16p0.json","0.25","true","","2680","https://mcdermottlab.mit.edu/mturk_stimuli/bjmedina/mem_exp_v05/mem_stim_1019_f32.wav","0","demo","","","0","","","","","",""
"","","","","","html-keyboard-response","29","733623","0.0-8.0-0.7","https://mcdermottlab.mit.edu/mturk_stimuli/bjmedina/mem_exp_ind-nature_2025/sequences/isi_16/len120/seq058_len120_s15_isi-1p0_0p0_16p0.json","0.25","true","","null","<span style=""font-size: 40px"">+</span>","null","fixation","","","","","","","","",""
"","","","","","audio-button-response","30","736089","0.0-8.0-1.7","https://mcdermottlab.mit.edu/mturk_stimuli/bjmedina/mem_exp_ind-nature_2025/sequences/isi_16/len120/seq058_len120_s15_isi-1p0_0p0_16p0.json","0.25","true","","2469","https://mcdermottlab.mit.edu/mturk_stimuli/bjmedina/mem_exp_v05/mem_stim_1021_f32.wav","3","demo","","","1","","","","","",""
"","","","","","html-keyboard-response","31","751558","0.0-9.0","https://mcdermottlab.mit.edu/mturk_stimuli/bjmedina/mem_exp_ind-nature_2025/sequences/isi_16/len120/seq058_len120_s15_isi-1p0_0p0_16p0.json","0.25","true","","15468","<p>You are now ready to start the experiment. Press SPACE when you are ready to start.</p>"," ","","","","","","","","","",""
"","","","","","html-keyboard-response","32","751613","0.0-10.0-1.0","https://mcdermottlab.mit.edu/mturk_stimuli/bjmedina/mem_exp_ind-nature_2025/sequences/isi_16/len120/seq058_len120_s15_isi-1p0_0p0_16p0.json","0.25","true","","null","<span style=""font-size: 40px"">+</span>","null","","","","","","","","","",""
"","","","","","audio-button-response","33","761925","0.0-10.0-2.0","https://mcdermottlab.mit.edu/mturk_stimuli/bjmedina/mem_exp_ind-nature_2025/sequences/isi_16/len120/seq058_len120_s15_isi-1p0_0p0_16p0.json","0.25","true","","6939","https://mcdermottlab.mit.edu/mturk_stimuli/bjmedina/mem_exp_ind-nature_2025/mem_stim_10.wav","0","main","","","false","mem_stim_10.wav","false","-1","","1","correct_rejection"
"","","","","","html-keyboard-response","34","761985","0.0-10.0-1.1","https://mcdermottlab.mit.edu/mturk_stimuli/bjmedina/mem_exp_ind-nature_2025/sequences/isi_16/len120/seq058_len120_s15_isi-1p0_0p0_16p0.json","0.25","true","","null","<span style=""font-size: 40px"">+</span>","null","","","","","","","","","",""
"","","","","","audio-button-response","35","767151","0.0-10.0-2.1","https://mcdermottlab.mit.edu/mturk_stimuli/bjmedina/mem_exp_ind-nature_2025/sequences/isi_16/len120/seq058_len120_s15_isi-1p0_0p0_16p0.json","0.25","true","","2541","https://mcdermottlab.mit.edu/mturk_stimuli/bjmedina/mem_exp_ind-nature_2025/mem_stim_4.wav","0","main","","","false","mem_stim_4.wav","false","-1","","1","correct_rejection"
"","","","","","html-keyboard-response","36","767214","0.0-10.0-1.2","https://mcdermottlab.mit.edu/mturk_stimuli/bjmedina/mem_exp_ind-nature_2025/sequences/isi_16/len120/seq058_len120_s15_isi-1p0_0p0_16p0.json","0.25","true","","null","<span style=""font-size: 40px"">+</span>","null","","","","","","","","","",""
"","","","","","audio-button-response","37","770750","0.0-10.0-2.2","https://mcdermottlab.mit.edu/mturk_stimuli/bjmedina/mem_exp_ind-nature_2025/sequences/isi_16/len120/seq058_len120_s15_isi-1p0_0p0_16p0.json","0.25","true","","2501","https://mcdermottlab.mit.edu/mturk_stimuli/bjmedina/mem_exp_ind-nature_2025/mem_stim_20.wav","0","main","","","false","mem_stim_20.wav","false","-1","","1","correct_rejection"
"","","","","","html-keyboard-response","38","770812","0.0-10.0-1.3","https://mcdermottlab.mit.edu/mturk_stimuli/bjmedina/mem_exp_ind-nature_2025/sequences/isi_16/len120/seq058_len120_s15_isi-1p0_0p0_16p0.json","0.25","true","","null","<span style=""font-size: 40px"">+</span>","null","","","","","","","","","",""
"","","","","","audio-button-response","39","774651","0.0-10.0-2.3","https://mcdermottlab.mit.edu/mturk_stimuli/bjmedina/mem_exp_ind-nature_2025/sequences/isi_16/len120/seq058_len120_s15_isi-1p0_0p0_16p0.json","0.25","true","","2779","https://mcdermottlab.mit.edu/mturk_stimuli/bjmedina/mem_exp_ind-nature_2025/mem_stim_48.wav","0","main","","","false","mem_stim_48.wav","false","-1","","1","correct_rejection"
"","","","","","html-keyboard-response","40","774719","0.0-10.0-1.4","https://mcdermottlab.mit.edu/mturk_stimuli/bjmedina/mem_exp_ind-nature_2025/sequences/isi_16/len120/seq058_len120_s15_isi-1p0_0p0_16p0.json","0.25","true","","null","<span style=""font-size: 40px"">+</span>","null","","","","","","","","","",""
"","","","","","audio-button-response","41","777972","0.0-10.0-2.4","https://mcdermottlab.mit.edu/mturk_stimuli/bjmedina/mem_exp_ind-nature_2025/sequences/isi_16/len120/seq058_len120_s15_isi-1p0_0p0_16p0.json","0.25","true","","2800","https://mcdermottlab.mit.edu/mturk_stimuli/bjmedina/mem_exp_ind-nature_2025/mem_stim_61.wav","0","main","","","false","mem_stim_61.wav","false","-1","","1","correct_rejection"
"","","","","","html-keyboard-response","42","778034","0.0-10.0-1.5","https://mcdermottlab.mit.edu/mturk_stimuli/bjmedina/mem_exp_ind-nature_2025/sequences/isi_16/len120/seq058_len120_s15_isi-1p0_0p0_16p0.json","0.25","true","","null","<span style=""font-size: 40px"">+</span>","null","","","","","","","","","",""
"","","","","","audio-button-response","43","781147","0.0-10.0-2.5","https://mcdermottlab.mit.edu/mturk_stimuli/bjmedina/mem_exp_ind-nature_2025/sequences/isi_16/len120/seq058_len120_s15_isi-1p0_0p0_16p0.json","0.25","true","","2640","https://mcdermottlab.mit.edu/mturk_stimuli/bjmedina/mem_exp_ind-nature_2025/mem_stim_11.wav","0","main","","","false","mem_stim_11.wav","false","-1","","1","correct_rejection"
"","","","","","html-keyboard-response","44","781219","0.0-10.0-1.6","https://mcdermottlab.mit.edu/mturk_stimuli/bjmedina/mem_exp_ind-nature_2025/sequences/isi_16/len120/seq058_len120_s15_isi-1p0_0p0_16p0.json","0.25","true","","null","<span style=""font-size: 40px"">+</span>","null","","","","","","","","","",""
"","","","","","audio-button-response","45","784361","0.0-10.0-2.6","https://mcdermottlab.mit.edu/mturk_stimuli/bjmedina/mem_exp_ind-nature_2025/sequences/isi_16/len120/seq058_len120_s15_isi-1p0_0p0_16p0.json","0.25","true","","2731","https://mcdermottlab.mit.edu/mturk_stimuli/bjmedina/mem_exp_ind-nature_2025/mem_stim_55.wav","0","main","","","false","mem_stim_55.wav","false","-1","","1","correct_rejection"
"","","","","","html-keyboard-response","46","784432","0.0-10.0-1.7","https://mcdermottlab.mit.edu/mturk_stimuli/bjmedina/mem_exp_ind-nature_2025/sequences/isi_16/len120/seq058_len120_s15_isi-1p0_0p0_16p0.json","0.25","true","","null","<span style=""font-size: 40px"">+</span>","null","","","","","","","","","",""
"","","","","","audio-button-response","47","786827","0.0-10.0-2.7","https://mcdermottlab.mit.edu/mturk_stimuli/bjmedina/mem_exp_ind-nature_2025/sequences/isi_16/len120/seq058_len120_s15_isi-1p0_0p0_16p0.json","0.25","true","","2400","https://mcdermottlab.mit.edu/mturk_stimuli/bjmedina/mem_exp_ind-nature_2025/mem_stim_55.wav","3","main","","","true","mem_stim_55.wav","true","0","","0","miss"
"","","","","","html-keyboard-response","48","786889","0.0-10.0-1.8","https://mcdermottlab.mit.edu/mturk_stimuli/bjmedina/mem_exp_ind-nature_2025/sequences/isi_16/len120/seq058_len120_s15_isi-1p0_0p0_16p0.json","0.25","true","","null","<span style=""font-size: 40px"">+</span>","null","","","","","","","","","",""
"","","","","","audio-button-response","49","790129","0.0-10.0-2.8","https://mcdermottlab.mit.edu/mturk_stimuli/bjmedina/mem_exp_ind-nature_2025/sequences/isi_16/len120/seq058_len120_s15_isi-1p0_0p0_16p0.json","0.25","true","","2469","https://mcdermottlab.mit.edu/mturk_stimuli/bjmedina/mem_exp_ind-nature_2025/mem_stim_58.wav","0","main","","","false","mem_stim_58.wav","false","-1","","1","correct_rejection"
"","","","","","html-keyboard-response","50","790194","0.0-10.0-1.9","https://mcdermottlab.mit.edu/mturk_stimuli/bjmedina/mem_exp_ind-nature_2025/sequences/isi_16/len120/seq058_len120_s15_isi-1p0_0p0_16p0.json","0.25","true","","null","<span style=""font-size: 40px"">+</span>","null","","","","","","","","","",""
"","","","","","audio-button-response","51","792649","0.0-10.0-2.9","https://mcdermottlab.mit.edu/mturk_stimuli/bjmedina/mem_exp_ind-nature_2025/sequences/isi_16/len120/seq058_len120_s15_isi-1p0_0p0_16p0.json","0.25","true","","2448","https://mcdermottlab.mit.edu/mturk_stimuli/bjmedina/mem_exp_ind-nature_2025/mem_stim_58.wav","3","main","","","true","mem_stim_58.wav","true","0","","0","miss"
"","","","","","html-keyboard-response","52","792711","0.0-10.0-1.10","https://mcdermottlab.mit.edu/mturk_stimuli/bjmedina/mem_exp_ind-nature_2025/sequences/isi_16/len120/seq058_len120_s15_isi-1p0_0p0_16p0.json","0.25","true","","null","<span style=""font-size: 40px"">+</span>","null","","","","","","","","","",""
"","","","","","audio-button-response","53","796525","0.0-10.0-2.10","https://mcdermottlab.mit.edu/mturk_stimuli/bjmedina/mem_exp_ind-nature_2025/sequences/isi_16/len120/seq058_len120_s15_isi-1p0_0p0_16p0.json","0.25","true","","2579","https://mcdermottlab.mit.edu/mturk_stimuli/bjmedina/mem_exp_ind-nature_2025/mem_stim_33.wav","0","main","","","false","mem_stim_33.wav","false","-1","","1","correct_rejection"
"","","","","","html-keyboard-response","54","796595","0.0-10.0-1.11","https://mcdermottlab.mit.edu/mturk_stimuli/bjmedina/mem_exp_ind-nature_2025/sequences/isi_16/len120/seq058_len120_s15_isi-1p0_0p0_16p0.json","0.25","true","","null","<span style=""font-size: 40px"">+</span>","null","","","","","","","","","",""
"","","","","","audio-button-response","55","799643","0.0-10.0-2.11","https://mcdermottlab.mit.edu/mturk_stimuli/bjmedina/mem_exp_ind-nature_2025/sequences/isi_16/len120/seq058_len120_s15_isi-1p0_0p0_16p0.json","0.25","true","","2472","https://mcdermottlab.mit.edu/mturk_stimuli/bjmedina/mem_exp_ind-nature_2025/mem_stim_38.wav","0","main","","","false","mem_stim_38.wav","false","-1","","1","correct_rejection"
"","","","","","html-keyboard-response","56","799700","0.0-10.0-1.12","https://mcdermottlab.mit.edu/mturk_stimuli/bjmedina/mem_exp_ind-nature_2025/sequences/isi_16/len120/seq058_len120_s15_isi-1p0_0p0_16p0.json","0.25","true","","null","<span style=""font-size: 40px"">+</span>","null","","","","","","","","","",""
"","","","","","audio-button-response","57","802601","0.0-10.0-2.12","https://mcdermottlab.mit.edu/mturk_stimuli/bjmedina/mem_exp_ind-nature_2025/sequences/isi_16/len120/seq058_len120_s15_isi-1p0_0p0_16p0.json","0.25","true","","2451","https://mcdermottlab.mit.edu/mturk_stimuli/bjmedina/mem_exp_ind-nature_2025/mem_stim_62.wav","0","main","","","false","mem_stim_62.wav","false","-1","","1","correct_rejection"
"","","","","","html-keyboard-response","58","802665","0.0-10.0-1.13","https://mcdermottlab.mit.edu/mturk_stimuli/bjmedina/mem_exp_ind-nature_2025/sequences/isi_16/len120/seq058_len120_s15_isi-1p0_0p0_16p0.json","0.25","true","","null","<span style=""font-size: 40px"">+</span>","null","","","","","","","","","",""
"","","","","","audio-button-response","59","805777","0.0-10.0-2.13","https://mcdermottlab.mit.edu/mturk_stimuli/bjmedina/mem_exp_ind-nature_2025/sequences/isi_16/len120/seq058_len120_s15_isi-1p0_0p0_16p0.json","0.25","true","","2589","https://mcdermottlab.mit.edu/mturk_stimuli/bjmedina/mem_exp_ind-nature_2025/mem_stim_44.wav","0","main","","","false","mem_stim_44.wav","false","-1","","1","correct_rejection"
"","","","","","html-keyboard-response","60","805843","0.0-10.0-1.14","https://mcdermottlab.mit.edu/mturk_stimuli/bjmedina/mem_exp_ind-nature_2025/sequences/isi_16/len120/seq058_len120_s15_isi-1p0_0p0_16p0.json","0.25","true","","null","<span style=""font-size: 40px"">+</span>","null","","","","","","","","","",""
"","","","","","audio-button-response","61","808923","0.0-10.0-2.14","https://mcdermottlab.mit.edu/mturk_stimuli/bjmedina/mem_exp_ind-nature_2025/sequences/isi_16/len120/seq058_len120_s15_isi-1p0_0p0_16p0.json","0.25","true","","2720","https://mcdermottlab.mit.edu/mturk_stimuli/bjmedina/mem_exp_ind-nature_2025/mem_stim_73.wav","2","main","","","false","mem_stim_73.wav","false","-1","","1","correct_rejection"
"","","","","","html-keyboard-response","62","808980","0.0-10.0-1.15","https://mcdermottlab.mit.edu/mturk_stimuli/bjmedina/mem_exp_ind-nature_2025/sequences/isi_16/len120/seq058_len120_s15_isi-1p0_0p0_16p0.json","0.25","true","","null","<span style=""font-size: 40px"">+</span>","null","","","","","","","","","",""
"","","","","","audio-button-response","63","812389","0.0-10.0-2.15","https://mcdermottlab.mit.edu/mturk_stimuli/bjmedina/mem_exp_ind-nature_2025/sequences/isi_16/len120/seq058_len120_s15_isi-1p0_0p0_16p0.json","0.25","true","","2701","https://mcdermottlab.mit.edu/mturk_stimuli/bjmedina/mem_exp_ind-nature_2025/mem_stim_34.wav","0","main","","","false","mem_stim_34.wav","false","-1","","1","correct_rejection"
"","","","","","html-keyboard-response","64","812454","0.0-10.0-1.16","https://mcdermottlab.mit.edu/mturk_stimuli/bjmedina/mem_exp_ind-nature_2025/sequences/isi_16/len120/seq058_len120_s15_isi-1p0_0p0_16p0.json","0.25","true","","null","<span style=""font-size: 40px"">+</span>","null","","","","","","","","","",""
"","","","","","audio-button-response","65","815347","0.0-10.0-2.16","https://mcdermottlab.mit.edu/mturk_stimuli/bjmedina/mem_exp_ind-nature_2025/sequences/isi_16/len120/seq058_len120_s15_isi-1p0_0p0_16p0.json","0.25","true","","2571","https://mcdermottlab.mit.edu/mturk_stimuli/bjmedina/mem_exp_ind-nature_2025/mem_stim_59.wav","2","main","","","false","mem_stim_59.wav","false","-1","","1","correct_rejection"
"","","","","","html-keyboard-response","66","815410","0.0-10.0-1.17","https://mcdermottlab.mit.edu/mturk_stimuli/bjmedina/mem_exp_ind-nature_2025/sequences/isi_16/len120/seq058_len120_s15_isi-1p0_0p0_16p0.json","0.25","true","","null","<span style=""font-size: 40px"">+</span>","null","","","","","","","","","",""
"","","","","","audio-button-response","67","817909","0.0-10.0-2.17","https://mcdermottlab.mit.edu/mturk_stimuli/bjmedina/mem_exp_ind-nature_2025/sequences/isi_16/len120/seq058_len120_s15_isi-1p0_0p0_16p0.json","0.25","true","","2501","https://mcdermottlab.mit.edu/mturk_stimuli/bjmedina/mem_exp_ind-nature_2025/mem_stim_59.wav","3","main","","","true","mem_stim_59.wav","true","0","","0","miss"
"","","","","","html-keyboard-response","68","817966","0.0-10.0-1.18","https://mcdermottlab.mit.edu/mturk_stimuli/bjmedina/mem_exp_ind-nature_2025/sequences/isi_16/len120/seq058_len120_s15_isi-1p0_0p0_16p0.json","0.25","true","","null","<span style=""font-size: 40px"">+</span>","null","","","","","","","","","",""
"","","","","","audio-button-response","69","820541","0.0-10.0-2.18","https://mcdermottlab.mit.edu/mturk_stimuli/bjmedina/mem_exp_ind-nature_2025/sequences/isi_16/len120/seq058_len120_s15_isi-1p0_0p0_16p0.json","0.25","true","","2571","https://mcdermottlab.mit.edu/mturk_stimuli/bjmedina/mem_exp_ind-nature_2025/mem_stim_4.wav","3","main","","","true","mem_stim_4.wav","false","16","","0","miss"
"","","","","","html-keyboard-response","70","820601","0.0-10.0-1.19","https://mcdermottlab.mit.edu/mturk_stimuli/bjmedina/mem_exp_ind-nature_2025/sequences/isi_16/len120/seq058_len120_s15_isi-1p0_0p0_16p0.json","0.25","true","","null","<span style=""font-size: 40px"">+</span>","null","","","","","","","","","",""
"","","","","","audio-button-response","71","824875","0.0-10.0-2.19","https://mcdermottlab.mit.edu/mturk_stimuli/bjmedina/mem_exp_ind-nature_2025/sequences/isi_16/len120/seq058_len120_s15_isi-1p0_0p0_16p0.json","0.25","true","","3640","https://mcdermottlab.mit.edu/mturk_stimuli/bjmedina/mem_exp_ind-nature_2025/mem_stim_9.wav","0","main","","","false","mem_stim_9.wav","false","-1","","1","correct_rejection"
"","","","","","html-keyboard-response","72","824941","0.0-10.0-1.20","https://mcdermottlab.mit.edu/mturk_stimuli/bjmedina/mem_exp_ind-nature_2025/sequences/isi_16/len120/seq058_len120_s15_isi-1p0_0p0_16p0.json","0.25","true","","null","<span style=""font-size: 40px"">+</span>","null","","","","","","","","","",""
"","","","","","audio-button-response","73","828554","0.0-10.0-2.20","https://mcdermottlab.mit.edu/mturk_stimuli/bjmedina/mem_exp_ind-nature_2025/sequences/isi_16/len120/seq058_len120_s15_isi-1p0_0p0_16p0.json","0.25","true","","2512","https://mcdermottlab.mit.edu/mturk_stimuli/bjmedina/mem_exp_ind-nature_2025/mem_stim_60.wav","0","main","","","false","mem_stim_60.wav","false","-1","","1","correct_rejection"
"","","","","","html-keyboard-response","74","828623","0.0-10.0-1.21","https://mcdermottlab.mit.edu/mturk_stimuli/bjmedina/mem_exp_ind-nature_2025/sequences/isi_16/len120/seq058_len120_s15_isi-1p0_0p0_16p0.json","0.25","true","","null","<span style=""font-size: 40px"">+</span>","null","","","","","","","","","",""
"","","","","","audio-button-response","75","831985","0.0-10.0-2.21","https://mcdermottlab.mit.edu/mturk_stimuli/bjmedina/mem_exp_ind-nature_2025/sequences/isi_16/len120/seq058_len120_s15_isi-1p0_0p0_16p0.json","0.25","true","","3360","https://mcdermottlab.mit.edu/mturk_stimuli/bjmedina/mem_exp_ind-nature_2025/mem_stim_61.wav","2","main","","","true","mem_stim_61.wav","false","16","","0","miss"
"","","","","","html-keyboard-response","76","832044","0.0-10.0-1.22","https://mcdermottlab.mit.edu/mturk_stimuli/bjmedina/mem_exp_ind-nature_2025/sequences/isi_16/len120/seq058_len120_s15_isi-1p0_0p0_16p0.json","0.25","true","","null","<span style=""font-size: 40px"">+</span>","null","","","","","","","","","",""
"","","","","","audio-button-response","77","836103","0.0-10.0-2.22","https://mcdermottlab.mit.edu/mturk_stimuli/bjmedina/mem_exp_ind-nature_2025/sequences/isi_16/len120/seq058_len120_s15_isi-1p0_0p0_16p0.json","0.25","true","","3360","https://mcdermottlab.mit.edu/mturk_stimuli/bjmedina/mem_exp_ind-nature_2025/mem_stim_64.wav","1","main","","","false","mem_stim_64.wav","false","-1","","0","false_alarm"
"","","","","","html-keyboard-response","78","836165","0.0-10.0-1.23","https://mcdermottlab.mit.edu/mturk_stimuli/bjmedina/mem_exp_ind-nature_2025/sequences/isi_16/len120/seq058_len120_s15_isi-1p0_0p0_16p0.json","0.25","true","","null","<span style=""font-size: 40px"">+</span>","null","","","","","","","","","",""
"","","","","","audio-button-response","79","839955","0.0-10.0-2.23","https://mcdermottlab.mit.edu/mturk_stimuli/bjmedina/mem_exp_ind-nature_2025/sequences/isi_16/len120/seq058_len120_s15_isi-1p0_0p0_16p0.json","0.25","true","","2560","https://mcdermottlab.mit.edu/mturk_stimuli/bjmedina/mem_exp_ind-nature_2025/mem_stim_68.wav","0","main","","","false","mem_stim_68.wav","false","-1","","1","correct_rejection"
"","","","","","html-keyboard-response","80","840013","0.0-10.0-1.24","https://mcdermottlab.mit.edu/mturk_stimuli/bjmedina/mem_exp_ind-nature_2025/sequences/isi_16/len120/seq058_len120_s15_isi-1p0_0p0_16p0.json","0.25","true","","null","<span style=""font-size: 40px"">+</span>","null","","","","","","","","","",""
"","","","","","audio-button-response","81","843007","0.0-10.0-2.24","https://mcdermottlab.mit.edu/mturk_stimuli/bjmedina/mem_exp_ind-nature_2025/sequences/isi_16/len120/seq058_len120_s15_isi-1p0_0p0_16p0.json","0.25","true","","2659","https://mcdermottlab.mit.edu/mturk_stimuli/bjmedina/mem_exp_ind-nature_2025/mem_stim_67.wav","0","main","","","false","mem_stim_67.wav","false","-1","","1","correct_rejection"
"","","","","","html-keyboard-response","82","843064","0.0-10.0-1.25","https://mcdermottlab.mit.edu/mturk_stimuli/bjmedina/mem_exp_ind-nature_2025/sequences/isi_16/len120/seq058_len120_s15_isi-1p0_0p0_16p0.json","0.25","true","","null","<span style=""font-size: 40px"">+</span>","null","","","","","","","","","",""
"","","","","","audio-button-response","83","847304","0.0-10.0-2.25","https://mcdermottlab.mit.edu/mturk_stimuli/bjmedina/mem_exp_ind-nature_2025/sequences/isi_16/len120/seq058_len120_s15_isi-1p0_0p0_16p0.json","0.25","true","","3459","https://mcdermottlab.mit.edu/mturk_stimuli/bjmedina/mem_exp_ind-nature_2025/mem_stim_70.wav","3","main","","","false","mem_stim_70.wav","false","-1","","1","correct_rejection"
"","","","","","html-keyboard-response","84","847373","0.0-10.0-1.26","https://mcdermottlab.mit.edu/mturk_stimuli/bjmedina/mem_exp_ind-nature_2025/sequences/isi_16/len120/seq058_len120_s15_isi-1p0_0p0_16p0.json","0.25","true","","null","<span style=""font-size: 40px"">+</span>","null","","","","","","","","","",""
"","","","","","audio-button-response","85","850935","0.0-10.0-2.26","https://mcdermottlab.mit.edu/mturk_stimuli/bjmedina/mem_exp_ind-nature_2025/sequences/isi_16/len120/seq058_len120_s15_isi-1p0_0p0_16p0.json","0.25","true","","3189","https://mcdermottlab.mit.edu/mturk_stimuli/bjmedina/mem_exp_ind-nature_2025/mem_stim_77.wav","1","main","","","false","mem_stim_77.wav","false","-1","","0","false_alarm"
"","","","","","html-keyboard-response","86","851000","0.0-10.0-1.27","https://mcdermottlab.mit.edu/mturk_stimuli/bjmedina/mem_exp_ind-nature_2025/sequences/isi_16/len120/seq058_len120_s15_isi-1p0_0p0_16p0.json","0.25","true","","null","<span style=""font-size: 40px"">+</span>","null","","","","","","","","","",""
"","","","","","audio-button-response","87","854689","0.0-10.0-2.27","https://mcdermottlab.mit.edu/mturk_stimuli/bjmedina/mem_exp_ind-nature_2025/sequences/isi_16/len120/seq058_len120_s15_isi-1p0_0p0_16p0.json","0.25","true","","3288","https://mcdermottlab.mit.edu/mturk_stimuli/bjmedina/mem_exp_ind-nature_2025/mem_stim_35.wav","1","main","","","false","mem_stim_35.wav","false","-1","","0","false_alarm"
"","","","","","html-keyboard-response","88","854748","0.0-10.0-1.28","https://mcdermottlab.mit.edu/mturk_stimuli/bjmedina/mem_exp_ind-nature_2025/sequences/isi_16/len120/seq058_len120_s15_isi-1p0_0p0_16p0.json","0.25","true","","null","<span style=""font-size: 40px"">+</span>","null","","","","","","","","","",""
"","","","","","audio-button-response","89","858093","0.0-10.0-2.28","https://mcdermottlab.mit.edu/mturk_stimuli/bjmedina/mem_exp_ind-nature_2025/sequences/isi_16/len120/seq058_len120_s15_isi-1p0_0p0_16p0.json","0.25","true","","2629","https://mcdermottlab.mit.edu/mturk_stimuli/bjmedina/mem_exp_ind-nature_2025/mem_stim_13.wav","0","main","","","false","mem_stim_13.wav","false","-1","","1","correct_rejection"
"","","","","","html-keyboard-response","90","858167","0.0-10.0-1.29","https://mcdermottlab.mit.edu/mturk_stimuli/bjmedina/mem_exp_ind-nature_2025/sequences/isi_16/len120/seq058_len120_s15_isi-1p0_0p0_16p0.json","0.25","true","","null","<span style=""font-size: 40px"">+</span>","null","","","","","","","","","",""
"","","","","","audio-button-response","91","860689","0.0-10.0-2.29","https://mcdermottlab.mit.edu/mturk_stimuli/bjmedina/mem_exp_ind-nature_2025/sequences/isi_16/len120/seq058_len120_s15_isi-1p0_0p0_16p0.json","0.25","true","","2520","https://mcdermottlab.mit.edu/mturk_stimuli/bjmedina/mem_exp_ind-nature_2025/mem_stim_62.wav","3","main","","","true","mem_stim_62.wav","false","16","","0","miss"
"","","","","","html-keyboard-response","92","860751","0.0-10.0-1.30","https://mcdermottlab.mit.edu/mturk_stimuli/bjmedina/mem_exp_ind-nature_2025/sequences/isi_16/len120/seq058_len120_s15_isi-1p0_0p0_16p0.json","0.25","true","","null","<span style=""font-size: 40px"">+</span>","null","","","","","","","","","",""
"","","","","","audio-button-response","93","864096","0.0-10.0-2.30","https://mcdermottlab.mit.edu/mturk_stimuli/bjmedina/mem_exp_ind-nature_2025/sequences/isi_16/len120/seq058_len120_s15_isi-1p0_0p0_16p0.json","0.25","true","","2571","https://mcdermottlab.mit.edu/mturk_stimuli/bjmedina/mem_exp_ind-nature_2025/mem_stim_7.wav","0","main","","","false","mem_stim_7.wav","false","-1","","1","correct_rejection"
"","","","","","html-keyboard-response","94","864154","0.0-10.0-1.31","https://mcdermottlab.mit.edu/mturk_stimuli/bjmedina/mem_exp_ind-nature_2025/sequences/isi_16/len120/seq058_len120_s15_isi-1p0_0p0_16p0.json","0.25","true","","null","<span style=""font-size: 40px"">+</span>","null","","","","","","","","","",""
"","","","","","audio-button-response","95","868939","0.0-10.0-2.31","https://mcdermottlab.mit.edu/mturk_stimuli/bjmedina/mem_exp_ind-nature_2025/sequences/isi_16/len120/seq058_len120_s15_isi-1p0_0p0_16p0.json","0.25","true","","4779","https://mcdermottlab.mit.edu/mturk_stimuli/bjmedina/mem_exp_ind-nature_2025/mem_stim_73.wav","1","main","","","true","mem_stim_73.wav","false","16","","1","hit"
"","","","","","html-keyboard-response","96","869014","0.0-10.0-1.32","https://mcdermottlab.mit.edu/mturk_stimuli/bjmedina/mem_exp_ind-nature_2025/sequences/isi_16/len120/seq058_len120_s15_isi-1p0_0p0_16p0.json","0.25","true","","null","<span style=""font-size: 40px"">+</span>","null","","","","","","","","","",""
"","","","","","audio-button-response","97","873011","0.0-10.0-2.32","https://mcdermottlab.mit.edu/mturk_stimuli/bjmedina/mem_exp_ind-nature_2025/sequences/isi_16/len120/seq058_len120_s15_isi-1p0_0p0_16p0.json","0.25","true","","2419","https://mcdermottlab.mit.edu/mturk_stimuli/bjmedina/mem_exp_ind-nature_2025/mem_stim_39.wav","0","main","","","false","mem_stim_39.wav","false","-1","","1","correct_rejection"
"","","","","","html-keyboard-response","98","873072","0.0-10.0-1.33","https://mcdermottlab.mit.edu/mturk_stimuli/bjmedina/mem_exp_ind-nature_2025/sequences/isi_16/len120/seq058_len120_s15_isi-1p0_0p0_16p0.json","0.25","true","","null","<span style=""font-size: 40px"">+</span>","null","","","","","","","","","",""
"","","","","","audio-button-response","99","876611","0.0-10.0-2.33","https://mcdermottlab.mit.edu/mturk_stimuli/bjmedina/mem_exp_ind-nature_2025/sequences/isi_16/len120/seq058_len120_s15_isi-1p0_0p0_16p0.json","0.25","true","","3120","https://mcdermottlab.mit.edu/mturk_stimuli/bjmedina/mem_exp_ind-nature_2025/mem_stim_21.wav","1","main","","","false","mem_stim_21.wav","false","-1","","0","false_alarm"
"","","","","","html-keyboard-response","100","876679","0.0-10.0-1.34","https://mcdermottlab.mit.edu/mturk_stimuli/bjmedina/mem_exp_ind-nature_2025/sequences/isi_16/len120/seq058_len120_s15_isi-1p0_0p0_16p0.json","0.25","true","","null","<span style=""font-size: 40px"">+</span>","null","","","","","","","","","",""
"","","","","","audio-button-response","101","879608","0.0-10.0-2.34","https://mcdermottlab.mit.edu/mturk_stimuli/bjmedina/mem_exp_ind-nature_2025/sequences/isi_16/len120/seq058_len120_s15_isi-1p0_0p0_16p0.json","0.25","true","","2469","https://mcdermottlab.mit.edu/mturk_stimuli/bjmedina/mem_exp_ind-nature_2025/mem_stim_22.wav","0","main","","","false","mem_stim_22.wav","false","-1","","1","correct_rejection"
"","","","","","html-keyboard-response","102","879672","0.0-10.0-1.35","https://mcdermottlab.mit.edu/mturk_stimuli/bjmedina/mem_exp_ind-nature_2025/sequences/isi_16/len120/seq058_len120_s15_isi-1p0_0p0_16p0.json","0.25","true","","null","<span style=""font-size: 40px"">+</span>","null","","","","","","","","","",""
"","","","","","audio-button-response","103","882885","0.0-10.0-2.35","https://mcdermottlab.mit.edu/mturk_stimuli/bjmedina/mem_exp_ind-nature_2025/sequences/isi_16/len120/seq058_len120_s15_isi-1p0_0p0_16p0.json","0.25","true","","2819","https://mcdermottlab.mit.edu/mturk_stimuli/bjmedina/mem_exp_ind-nature_2025/mem_stim_2.wav","0","main","","","false","mem_stim_2.wav","false","-1","","1","correct_rejection"
"","","","","","html-keyboard-response","104","882957","0.0-10.0-1.36","https://mcdermottlab.mit.edu/mturk_stimuli/bjmedina/mem_exp_ind-nature_2025/sequences/isi_16/len120/seq058_len120_s15_isi-1p0_0p0_16p0.json","0.25","true","","null","<span style=""font-size: 40px"">+</span>","null","","","","","","","","","",""
"","","","","","audio-button-response","105","885814","0.0-10.0-2.36","https://mcdermottlab.mit.edu/mturk_stimuli/bjmedina/mem_exp_ind-nature_2025/sequences/isi_16/len120/seq058_len120_s15_isi-1p0_0p0_16p0.json","0.25","true","","2848","https://mcdermottlab.mit.edu/mturk_stimuli/bjmedina/mem_exp_ind-nature_2025/mem_stim_9.wav","3","main","","","true","mem_stim_9.wav","false","16","","0","miss"
"","","","","","html-keyboard-response","106","885871","0.0-10.0-1.37","https://mcdermottlab.mit.edu/mturk_stimuli/bjmedina/mem_exp_ind-nature_2025/sequences/isi_16/len120/seq058_len120_s15_isi-1p0_0p0_16p0.json","0.25","true","","null","<span style=""font-size: 40px"">+</span>","null","","","","","","","","","",""
"","","","","","audio-button-response","107","888553","0.0-10.0-2.37","https://mcdermottlab.mit.edu/mturk_stimuli/bjmedina/mem_exp_ind-nature_2025/sequences/isi_16/len120/seq058_len120_s15_isi-1p0_0p0_16p0.json","0.25","true","","2680","https://mcdermottlab.mit.edu/mturk_stimuli/bjmedina/mem_exp_ind-nature_2025/mem_stim_60.wav","0","main","","","true","mem_stim_60.wav","false","16","","0","miss"
"","","","","","html-keyboard-response","108","888611","0.0-10.0-1.38","https://mcdermottlab.mit.edu/mturk_stimuli/bjmedina/mem_exp_ind-nature_2025/sequences/isi_16/len120/seq058_len120_s15_isi-1p0_0p0_16p0.json","0.25","true","","null","<span style=""font-size: 40px"">+</span>","null","","","","","","","","","",""
"","","","","","audio-button-response","109","892725","0.0-10.0-2.38","https://mcdermottlab.mit.edu/mturk_stimuli/bjmedina/mem_exp_ind-nature_2025/sequences/isi_16/len120/seq058_len120_s15_isi-1p0_0p0_16p0.json","0.25","true","","3459","https://mcdermottlab.mit.edu/mturk_stimuli/bjmedina/mem_exp_ind-nature_2025/mem_stim_3.wav","2","main","","","false","mem_stim_3.wav","false","-1","","1","correct_rejection"
"","","","","","html-keyboard-response","110","892795","0.0-10.0-1.39","https://mcdermottlab.mit.edu/mturk_stimuli/bjmedina/mem_exp_ind-nature_2025/sequences/isi_16/len120/seq058_len120_s15_isi-1p0_0p0_16p0.json","0.25","true","","null","<span style=""font-size: 40px"">+</span>","null","","","","","","","","","",""
"","","","","","audio-button-response","111","895294","0.0-10.0-2.39","https://mcdermottlab.mit.edu/mturk_stimuli/bjmedina/mem_exp_ind-nature_2025/sequences/isi_16/len120/seq058_len120_s15_isi-1p0_0p0_16p0.json","0.25","true","","2488","https://mcdermottlab.mit.edu/mturk_stimuli/bjmedina/mem_exp_ind-nature_2025/mem_stim_64.wav","3","main","","","true","mem_stim_64.wav","false","16","","0","miss"
"","","","","","html-keyboard-response","112","895359","0.0-10.0-1.40","https://mcdermottlab.mit.edu/mturk_stimuli/bjmedina/mem_exp_ind-nature_2025/sequences/isi_16/len120/seq058_len120_s15_isi-1p0_0p0_16p0.json","0.25","true","","null","<span style=""font-size: 40px"">+</span>","null","","","","","","","","","",""
"","","","","","audio-button-response","113","897930","0.0-10.0-2.40","https://mcdermottlab.mit.edu/mturk_stimuli/bjmedina/mem_exp_ind-nature_2025/sequences/isi_16/len120/seq058_len120_s15_isi-1p0_0p0_16p0.json","0.25","true","","2568","https://mcdermottlab.mit.edu/mturk_stimuli/bjmedina/mem_exp_ind-nature_2025/mem_stim_68.wav","3","main","","","true","mem_stim_68.wav","false","16","","0","miss"
"","","","","","html-keyboard-response","114","897988","0.0-10.0-1.41","https://mcdermottlab.mit.edu/mturk_stimuli/bjmedina/mem_exp_ind-nature_2025/sequences/isi_16/len120/seq058_len120_s15_isi-1p0_0p0_16p0.json","0.25","true","","null","<span style=""font-size: 40px"">+</span>","null","","","","","","","","","",""
"","","","","","audio-button-response","115","900872","0.0-10.0-2.41","https://mcdermottlab.mit.edu/mturk_stimuli/bjmedina/mem_exp_ind-nature_2025/sequences/isi_16/len120/seq058_len120_s15_isi-1p0_0p0_16p0.json","0.25","true","","2880","https://mcdermottlab.mit.edu/mturk_stimuli/bjmedina/mem_exp_ind-nature_2025/mem_stim_67.wav","2","main","","","true","mem_stim_67.wav","false","16","","0","miss"
"","","","","","html-keyboard-response","116","900930","0.0-10.0-1.42","https://mcdermottlab.mit.edu/mturk_stimuli/bjmedina/mem_exp_ind-nature_2025/sequences/isi_16/len120/seq058_len120_s15_isi-1p0_0p0_16p0.json","0.25","true","","null","<span style=""font-size: 40px"">+</span>","null","","","","","","","","","",""
"","","","","","audio-button-response","117","903385","0.0-10.0-2.42","https://mcdermottlab.mit.edu/mturk_stimuli/bjmedina/mem_exp_ind-nature_2025/sequences/isi_16/len120/seq058_len120_s15_isi-1p0_0p0_16p0.json","0.25","true","","2461","https://mcdermottlab.mit.edu/mturk_stimuli/bjmedina/mem_exp_ind-nature_2025/mem_stim_70.wav","3","main","","","true","mem_stim_70.wav","false","16","","0","miss"
"","","","","","html-keyboard-response","118","903451","0.0-10.0-1.43","https://mcdermottlab.mit.edu/mturk_stimuli/bjmedina/mem_exp_ind-nature_2025/sequences/isi_16/len120/seq058_len120_s15_isi-1p0_0p0_16p0.json","0.25","true","","null","<span style=""font-size: 40px"">+</span>","null","","","","","","","","","",""
"","","","","","audio-button-response","119","906345","0.0-10.0-2.43","https://mcdermottlab.mit.edu/mturk_stimuli/bjmedina/mem_exp_ind-nature_2025/sequences/isi_16/len120/seq058_len120_s15_isi-1p0_0p0_16p0.json","0.25","true","","2901","https://mcdermottlab.mit.edu/mturk_stimuli/bjmedina/mem_exp_ind-nature_2025/mem_stim_77.wav","3","main","","","true","mem_stim_77.wav","false","16","","0","miss"
"","","","","","html-keyboard-response","120","906418","0.0-10.0-1.44","https://mcdermottlab.mit.edu/mturk_stimuli/bjmedina/mem_exp_ind-nature_2025/sequences/isi_16/len120/seq058_len120_s15_isi-1p0_0p0_16p0.json","0.25","true","","null","<span style=""font-size: 40px"">+</span>","null","","","","","","","","","",""
"","","","","","audio-button-response","121","910651","0.0-10.0-2.44","https://mcdermottlab.mit.edu/mturk_stimuli/bjmedina/mem_exp_ind-nature_2025/sequences/isi_16/len120/seq058_len120_s15_isi-1p0_0p0_16p0.json","0.25","true","","2480","https://mcdermottlab.mit.edu/mturk_stimuli/bjmedina/mem_exp_ind-nature_2025/mem_stim_15.wav","0","main","","","false","mem_stim_15.wav","false","-1","","1","correct_rejection"
"","","","","","html-keyboard-response","122","910712","0.0-10.0-1.45","https://mcdermottlab.mit.edu/mturk_stimuli/bjmedina/mem_exp_ind-nature_2025/sequences/isi_16/len120/seq058_len120_s15_isi-1p0_0p0_16p0.json","0.25","true","","null","<span style=""font-size: 40px"">+</span>","null","","","","","","","","","",""
"","","","","","audio-button-response","123","913496","0.0-10.0-2.45","https://mcdermottlab.mit.edu/mturk_stimuli/bjmedina/mem_exp_ind-nature_2025/sequences/isi_16/len120/seq058_len120_s15_isi-1p0_0p0_16p0.json","0.25","true","","2451","https://mcdermottlab.mit.edu/mturk_stimuli/bjmedina/mem_exp_ind-nature_2025/mem_stim_51.wav","0","main","","","false","mem_stim_51.wav","false","-1","","1","correct_rejection"
"","","","","","html-keyboard-response","124","913568","0.0-10.0-1.46","https://mcdermottlab.mit.edu/mturk_stimuli/bjmedina/mem_exp_ind-nature_2025/sequences/isi_16/len120/seq058_len120_s15_isi-1p0_0p0_16p0.json","0.25","true","","null","<span style=""font-size: 40px"">+</span>","null","","","","","","","","","",""
"","","","","","audio-button-response","125","916513","0.0-10.0-2.46","https://mcdermottlab.mit.edu/mturk_stimuli/bjmedina/mem_exp_ind-nature_2025/sequences/isi_16/len120/seq058_len120_s15_isi-1p0_0p0_16p0.json","0.25","true","","2941","https://mcdermottlab.mit.edu/mturk_stimuli/bjmedina/mem_exp_ind-nature_2025/mem_stim_51.wav","3","main","","","true","mem_stim_51.wav","true","0","","0","miss"
"","","","","","html-keyboard-response","126","916583","0.0-10.0-1.47","https://mcdermottlab.mit.edu/mturk_stimuli/bjmedina/mem_exp_ind-nature_2025/sequences/isi_16/len120/seq058_len120_s15_isi-1p0_0p0_16p0.json","0.25","true","","null","<span style=""font-size: 40px"">+</span>","null","","","","","","","","","",""
"","","","","","audio-button-response","127","919159","0.0-10.0-2.47","https://mcdermottlab.mit.edu/mturk_stimuli/bjmedina/mem_exp_ind-nature_2025/sequences/isi_16/len120/seq058_len120_s15_isi-1p0_0p0_16p0.json","0.25","true","","2571","https://mcdermottlab.mit.edu/mturk_stimuli/bjmedina/mem_exp_ind-nature_2025/mem_stim_7.wav","3","main","","","true","mem_stim_7.wav","false","16","","0","miss"
"","","","","","html-keyboard-response","128","919226","0.0-10.0-1.48","https://mcdermottlab.mit.edu/mturk_stimuli/bjmedina/mem_exp_ind-nature_2025/sequences/isi_16/len120/seq058_len120_s15_isi-1p0_0p0_16p0.json","0.25","true","","null","<span style=""font-size: 40px"">+</span>","null","","","","","","","","","",""
"","","","","","audio-button-response","129","922353","0.0-10.0-2.48","https://mcdermottlab.mit.edu/mturk_stimuli/bjmedina/mem_exp_ind-nature_2025/sequences/isi_16/len120/seq058_len120_s15_isi-1p0_0p0_16p0.json","0.25","true","","2440","https://mcdermottlab.mit.edu/mturk_stimuli/bjmedina/mem_exp_ind-nature_2025/mem_stim_78.wav","0","main","","","false","mem_stim_78.wav","false","-1","","1","correct_rejection"
"","","","","","html-keyboard-response","130","922413","0.0-10.0-1.49","https://mcdermottlab.mit.edu/mturk_stimuli/bjmedina/mem_exp_ind-nature_2025/sequences/isi_16/len120/seq058_len120_s15_isi-1p0_0p0_16p0.json","0.25","true","","null","<span style=""font-size: 40px"">+</span>","null","","","","","","","","","",""
"","","","","","audio-button-response","131","927138","0.0-10.0-2.49","https://mcdermottlab.mit.edu/mturk_stimuli/bjmedina/mem_exp_ind-nature_2025/sequences/isi_16/len120/seq058_len120_s15_isi-1p0_0p0_16p0.json","0.25","true","","3304","https://mcdermottlab.mit.edu/mturk_stimuli/bjmedina/mem_exp_ind-nature_2025/mem_stim_47.wav","0","main","","","false","mem_stim_47.wav","false","-1","","1","correct_rejection"
"","","","","","html-keyboard-response","132","927202","0.0-10.0-1.50","https://mcdermottlab.mit.edu/mturk_stimuli/bjmedina/mem_exp_ind-nature_2025/sequences/isi_16/len120/seq058_len120_s15_isi-1p0_0p0_16p0.json","0.25","true","","null","<span style=""font-size: 40px"">+</span>","null","","","","","","","","","",""
"","","","","","audio-button-response","133","931217","0.0-10.0-2.50","https://mcdermottlab.mit.edu/mturk_stimuli/bjmedina/mem_exp_ind-nature_2025/sequences/isi_16/len120/seq058_len120_s15_isi-1p0_0p0_16p0.json","0.25","true","","3491","https://mcdermottlab.mit.edu/mturk_stimuli/bjmedina/mem_exp_ind-nature_2025/mem_stim_25.wav","1","main","","","false","mem_stim_25.wav","false","-1","","0","false_alarm"
"","","","","","html-keyboard-response","134","931276","0.0-10.0-1.51","https://mcdermottlab.mit.edu/mturk_stimuli/bjmedina/mem_exp_ind-nature_2025/sequences/isi_16/len120/seq058_len120_s15_isi-1p0_0p0_16p0.json","0.25","true","","null","<span style=""font-size: 40px"">+</span>","null","","","","","","","","","",""
"","","","","","audio-button-response","135","934232","0.0-10.0-2.51","https://mcdermottlab.mit.edu/mturk_stimuli/bjmedina/mem_exp_ind-nature_2025/sequences/isi_16/len120/seq058_len120_s15_isi-1p0_0p0_16p0.json","0.25","true","","2509","https://mcdermottlab.mit.edu/mturk_stimuli/bjmedina/mem_exp_ind-nature_2025/mem_stim_14.wav","0","main","","","false","mem_stim_14.wav","false","-1","","1","correct_rejection"
"","","","","","html-keyboard-response","136","934292","0.0-10.0-1.52","https://mcdermottlab.mit.edu/mturk_stimuli/bjmedina/mem_exp_ind-nature_2025/sequences/isi_16/len120/seq058_len120_s15_isi-1p0_0p0_16p0.json","0.25","true","","null","<span style=""font-size: 40px"">+</span>","null","","","","","","","","","",""
"","","","","","audio-button-response","137","936802","0.0-10.0-2.52","https://mcdermottlab.mit.edu/mturk_stimuli/bjmedina/mem_exp_ind-nature_2025/sequences/isi_16/len120/seq058_len120_s15_isi-1p0_0p0_16p0.json","0.25","true","","2512","https://mcdermottlab.mit.edu/mturk_stimuli/bjmedina/mem_exp_ind-nature_2025/mem_stim_2.wav","2","main","","","true","mem_stim_2.wav","false","16","","0","miss"
"","","","","","html-keyboard-response","138","936867","0.0-10.0-1.53","https://mcdermottlab.mit.edu/mturk_stimuli/bjmedina/mem_exp_ind-nature_2025/sequences/isi_16/len120/seq058_len120_s15_isi-1p0_0p0_16p0.json","0.25","true","","null","<span style=""font-size: 40px"">+</span>","null","","","","","","","","","",""
"","","","","","audio-button-response","139","940075","0.0-10.0-2.53","https://mcdermottlab.mit.edu/mturk_stimuli/bjmedina/mem_exp_ind-nature_2025/sequences/isi_16/len120/seq058_len120_s15_isi-1p0_0p0_16p0.json","0.25","true","","2411","https://mcdermottlab.mit.edu/mturk_stimuli/bjmedina/mem_exp_ind-nature_2025/mem_stim_45.wav","0","main","","","false","mem_stim_45.wav","false","-1","","1","correct_rejection"
"","","","","","html-keyboard-response","140","940141","0.0-10.0-1.54","https://mcdermottlab.mit.edu/mturk_stimuli/bjmedina/mem_exp_ind-nature_2025/sequences/isi_16/len120/seq058_len120_s15_isi-1p0_0p0_16p0.json","0.25","true","","null","<span style=""font-size: 40px"">+</span>","null","","","","","","","","","",""
"","","","","","audio-button-response","141","944000","0.0-10.0-2.54","https://mcdermottlab.mit.edu/mturk_stimuli/bjmedina/mem_exp_ind-nature_2025/sequences/isi_16/len120/seq058_len120_s15_isi-1p0_0p0_16p0.json","0.25","true","","2461","https://mcdermottlab.mit.edu/mturk_stimuli/bjmedina/mem_exp_ind-nature_2025/mem_stim_74.wav","2","main","","","false","mem_stim_74.wav","false","-1","","1","correct_rejection"
"","","","","","html-keyboard-response","142","944059","0.0-10.0-1.55","https://mcdermottlab.mit.edu/mturk_stimuli/bjmedina/mem_exp_ind-nature_2025/sequences/isi_16/len120/seq058_len120_s15_isi-1p0_0p0_16p0.json","0.25","true","","null","<span style=""font-size: 40px"">+</span>","null","","","","","","","","","",""
"","","","","","audio-button-response","143","946597","0.0-10.0-2.55","https://mcdermottlab.mit.edu/mturk_stimuli/bjmedina/mem_exp_ind-nature_2025/sequences/isi_16/len120/seq058_len120_s15_isi-1p0_0p0_16p0.json","0.25","true","","2541","https://mcdermottlab.mit.edu/mturk_stimuli/bjmedina/mem_exp_ind-nature_2025/mem_stim_3.wav","3","main","","","true","mem_stim_3.wav","false","16","","0","miss"
"","","","","","html-keyboard-response","144","946656","0.0-10.0-1.56","https://mcdermottlab.mit.edu/mturk_stimuli/bjmedina/mem_exp_ind-nature_2025/sequences/isi_16/len120/seq058_len120_s15_isi-1p0_0p0_16p0.json","0.25","true","","null","<span style=""font-size: 40px"">+</span>","null","","","","","","","","","",""
"","","","","","audio-button-response","145","949812","0.0-10.0-2.56","https://mcdermottlab.mit.edu/mturk_stimuli/bjmedina/mem_exp_ind-nature_2025/sequences/isi_16/len120/seq058_len120_s15_isi-1p0_0p0_16p0.json","0.25","true","","2528","https://mcdermottlab.mit.edu/mturk_stimuli/bjmedina/mem_exp_ind-nature_2025/mem_stim_5.wav","3","main","","","false","mem_stim_5.wav","false","-1","","1","correct_rejection"
"","","","","","html-keyboard-response","146","949884","0.0-10.0-1.57","https://mcdermottlab.mit.edu/mturk_stimuli/bjmedina/mem_exp_ind-nature_2025/sequences/isi_16/len120/seq058_len120_s15_isi-1p0_0p0_16p0.json","0.25","true","","null","<span style=""font-size: 40px"">+</span>","null","","","","","","","","","",""
"","","","","","audio-button-response","147","953819","0.0-10.0-2.57","https://mcdermottlab.mit.edu/mturk_stimuli/bjmedina/mem_exp_ind-nature_2025/sequences/isi_16/len120/seq058_len120_s15_isi-1p0_0p0_16p0.json","0.25","true","","2579","https://mcdermottlab.mit.edu/mturk_stimuli/bjmedina/mem_exp_ind-nature_2025/mem_stim_28.wav","0","main","","","false","mem_stim_28.wav","false","-1","","1","correct_rejection"
"","","","","","html-keyboard-response","148","953880","0.0-10.0-1.58","https://mcdermottlab.mit.edu/mturk_stimuli/bjmedina/mem_exp_ind-nature_2025/sequences/isi_16/len120/seq058_len120_s15_isi-1p0_0p0_16p0.json","0.25","true","","null","<span style=""font-size: 40px"">+</span>","null","","","","","","","","","",""
"","","","","","audio-button-response","149","956754","0.0-10.0-2.58","https://mcdermottlab.mit.edu/mturk_stimuli/bjmedina/mem_exp_ind-nature_2025/sequences/isi_16/len120/seq058_len120_s15_isi-1p0_0p0_16p0.json","0.25","true","","2440","https://mcdermottlab.mit.edu/mturk_stimuli/bjmedina/mem_exp_ind-nature_2025/mem_stim_37.wav","0","main","","","false","mem_stim_37.wav","false","-1","","1","correct_rejection"
"","","","","","html-keyboard-response","150","956818","0.0-10.0-1.59","https://mcdermottlab.mit.edu/mturk_stimuli/bjmedina/mem_exp_ind-nature_2025/sequences/isi_16/len120/seq058_len120_s15_isi-1p0_0p0_16p0.json","0.25","true","","null","<span style=""font-size: 40px"">+</span>","null","","","","","","","","","",""
"","","","","","audio-button-response","151","960143","0.0-10.0-2.59","https://mcdermottlab.mit.edu/mturk_stimuli/bjmedina/mem_exp_ind-nature_2025/sequences/isi_16/len120/seq058_len120_s15_isi-1p0_0p0_16p0.json","0.25","true","","2619","https://mcdermottlab.mit.edu/mturk_stimuli/bjmedina/mem_exp_ind-nature_2025/mem_stim_43.wav","0","main","","","false","mem_stim_43.wav","false","-1","","1","correct_rejection"
"","","","","","html-keyboard-response","152","960208","0.0-10.0-1.60","https://mcdermottlab.mit.edu/mturk_stimuli/bjmedina/mem_exp_ind-nature_2025/sequences/isi_16/len120/seq058_len120_s15_isi-1p0_0p0_16p0.json","0.25","true","","null","<span style=""font-size: 40px"">+</span>","null","","","","","","","","","",""
"","","","","","audio-button-response","153","963471","0.0-10.0-2.60","https://mcdermottlab.mit.edu/mturk_stimuli/bjmedina/mem_exp_ind-nature_2025/sequences/isi_16/len120/seq058_len120_s15_isi-1p0_0p0_16p0.json","0.25","true","","2691","https://mcdermottlab.mit.edu/mturk_stimuli/bjmedina/mem_exp_ind-nature_2025/mem_stim_76.wav","2","main","","","false","mem_stim_76.wav","false","-1","","1","correct_rejection"
"","","","","","html-keyboard-response","154","963530","0.0-10.0-1.61","https://mcdermottlab.mit.edu/mturk_stimuli/bjmedina/mem_exp_ind-nature_2025/sequences/isi_16/len120/seq058_len120_s15_isi-1p0_0p0_16p0.json","0.25","true","","null","<span style=""font-size: 40px"">+</span>","null","","","","","","","","","",""
"","","","","","audio-button-response","155","967547","0.0-10.0-2.61","https://mcdermottlab.mit.edu/mturk_stimuli/bjmedina/mem_exp_ind-nature_2025/sequences/isi_16/len120/seq058_len120_s15_isi-1p0_0p0_16p0.json","0.25","true","","3600","https://mcdermottlab.mit.edu/mturk_stimuli/bjmedina/mem_exp_ind-nature_2025/mem_stim_26.wav","1","main","","","false","mem_stim_26.wav","false","-1","","0","false_alarm"
"","","","","","html-keyboard-response","156","967609","0.0-10.0-1.62","https://mcdermottlab.mit.edu/mturk_stimuli/bjmedina/mem_exp_ind-nature_2025/sequences/isi_16/len120/seq058_len120_s15_isi-1p0_0p0_16p0.json","0.25","true","","null","<span style=""font-size: 40px"">+</span>","null","","","","","","","","","",""
"","","","","","audio-button-response","157","970598","0.0-10.0-2.62","https://mcdermottlab.mit.edu/mturk_stimuli/bjmedina/mem_exp_ind-nature_2025/sequences/isi_16/len120/seq058_len120_s15_isi-1p0_0p0_16p0.json","0.25","true","","2560","https://mcdermottlab.mit.edu/mturk_stimuli/bjmedina/mem_exp_ind-nature_2025/mem_stim_18.wav","0","main","","","false","mem_stim_18.wav","false","-1","","1","correct_rejection"
"","","","","","html-keyboard-response","158","970663","0.0-10.0-1.63","https://mcdermottlab.mit.edu/mturk_stimuli/bjmedina/mem_exp_ind-nature_2025/sequences/isi_16/len120/seq058_len120_s15_isi-1p0_0p0_16p0.json","0.25","true","","null","<span style=""font-size: 40px"">+</span>","null","","","","","","","","","",""
"","","","","","audio-button-response","159","975449","0.0-10.0-2.63","https://mcdermottlab.mit.edu/mturk_stimuli/bjmedina/mem_exp_ind-nature_2025/sequences/isi_16/len120/seq058_len120_s15_isi-1p0_0p0_16p0.json","0.25","true","","4400","https://mcdermottlab.mit.edu/mturk_stimuli/bjmedina/mem_exp_ind-nature_2025/mem_stim_49.wav","0","main","","","false","mem_stim_49.wav","false","-1","","1","correct_rejection"
"","","","","","html-keyboard-response","160","975512","0.0-10.0-1.64","https://mcdermottlab.mit.edu/mturk_stimuli/bjmedina/mem_exp_ind-nature_2025/sequences/isi_16/len120/seq058_len120_s15_isi-1p0_0p0_16p0.json","0.25","true","","null","<span style=""font-size: 40px"">+</span>","null","","","","","","","","","",""
"","","","","","audio-button-response","161","978633","0.0-10.0-2.64","https://mcdermottlab.mit.edu/mturk_stimuli/bjmedina/mem_exp_ind-nature_2025/sequences/isi_16/len120/seq058_len120_s15_isi-1p0_0p0_16p0.json","0.25","true","","2571","https://mcdermottlab.mit.edu/mturk_stimuli/bjmedina/mem_exp_ind-nature_2025/mem_stim_24.wav","0","main","","","false","mem_stim_24.wav","false","-1","","1","correct_rejection"
"","","","","","html-keyboard-response","162","978691","0.0-10.0-1.65","https://mcdermottlab.mit.edu/mturk_stimuli/bjmedina/mem_exp_ind-nature_2025/sequences/isi_16/len120/seq058_len120_s15_isi-1p0_0p0_16p0.json","0.25","true","","null","<span style=""font-size: 40px"">+</span>","null","","","","","","","","","",""
"","","","","","audio-button-response","163","1017979","0.0-10.0-2.65","https://mcdermottlab.mit.edu/mturk_stimuli/bjmedina/mem_exp_ind-nature_2025/sequences/isi_16/len120/seq058_len120_s15_isi-1p0_0p0_16p0.json","0.25","true","","39280","https://mcdermottlab.mit.edu/mturk_stimuli/bjmedina/mem_exp_ind-nature_2025/mem_stim_78.wav","1","main","","","true","mem_stim_78.wav","false","16","","1","hit"
"","","","","","html-keyboard-response","164","1018045","0.0-10.0-1.66","https://mcdermottlab.mit.edu/mturk_stimuli/bjmedina/mem_exp_ind-nature_2025/sequences/isi_16/len120/seq058_len120_s15_isi-1p0_0p0_16p0.json","0.25","true","","null","<span style=""font-size: 40px"">+</span>","null","","","","","","","","","",""
"","","","","","audio-button-response","165","1030610","0.0-10.0-2.66","https://mcdermottlab.mit.edu/mturk_stimuli/bjmedina/mem_exp_ind-nature_2025/sequences/isi_16/len120/seq058_len120_s15_isi-1p0_0p0_16p0.json","0.25","true","","10189","https://mcdermottlab.mit.edu/mturk_stimuli/bjmedina/mem_exp_ind-nature_2025/mem_stim_27.wav","2","main","","","false","mem_stim_27.wav","false","-1","","1","correct_rejection"
"","","","","","html-keyboard-response","166","1030674","0.0-10.0-1.67","https://mcdermottlab.mit.edu/mturk_stimuli/bjmedina/mem_exp_ind-nature_2025/sequences/isi_16/len120/seq058_len120_s15_isi-1p0_0p0_16p0.json","0.25","true","","null","<span style=""font-size: 40px"">+</span>","null","","","","","","","","","",""
"","","","","","audio-button-response","167","1036191","0.0-10.0-2.67","https://mcdermottlab.mit.edu/mturk_stimuli/bjmedina/mem_exp_ind-nature_2025/sequences/isi_16/len120/seq058_len120_s15_isi-1p0_0p0_16p0.json","0.25","true","","2752","https://mcdermottlab.mit.edu/mturk_stimuli/bjmedina/mem_exp_ind-nature_2025/mem_stim_75.wav","1","main","","","false","mem_stim_75.wav","false","-1","","0","false_alarm"
"","","","","","html-keyboard-response","168","1036252","0.0-10.0-1.68","https://mcdermottlab.mit.edu/mturk_stimuli/bjmedina/mem_exp_ind-nature_2025/sequences/isi_16/len120/seq058_len120_s15_isi-1p0_0p0_16p0.json","0.25","true","","null","<span style=""font-size: 40px"">+</span>","null","","","","","","","","","",""
"","","","","","audio-button-response","169","1041249","0.0-10.0-2.68","https://mcdermottlab.mit.edu/mturk_stimuli/bjmedina/mem_exp_ind-nature_2025/sequences/isi_16/len120/seq058_len120_s15_isi-1p0_0p0_16p0.json","0.25","true","","3859","https://mcdermottlab.mit.edu/mturk_stimuli/bjmedina/mem_exp_ind-nature_2025/mem_stim_30.wav","1","main","","","false","mem_stim_30.wav","false","-1","","0","false_alarm"
"","","","","","html-keyboard-response","170","1041319","0.0-10.0-1.69","https://mcdermottlab.mit.edu/mturk_stimuli/bjmedina/mem_exp_ind-nature_2025/sequences/isi_16/len120/seq058_len120_s15_isi-1p0_0p0_16p0.json","0.25","true","","null","<span style=""font-size: 40px"">+</span>","null","","","","","","","","","",""
"","","","","","audio-button-response","171","1045171","0.0-10.0-2.69","https://mcdermottlab.mit.edu/mturk_stimuli/bjmedina/mem_exp_ind-nature_2025/sequences/isi_16/len120/seq058_len120_s15_isi-1p0_0p0_16p0.json","0.25","true","","2469","https://mcdermottlab.mit.edu/mturk_stimuli/bjmedina/mem_exp_ind-nature_2025/mem_stim_41.wav","0","main","","","false","mem_stim_41.wav","false","-1","","1","correct_rejection"
"","","","","","html-keyboard-response","172","1045238","0.0-10.0-1.70","https://mcdermottlab.mit.edu/mturk_stimuli/bjmedina/mem_exp_ind-nature_2025/sequences/isi_16/len120/seq058_len120_s15_isi-1p0_0p0_16p0.json","0.25","true","","null","<span style=""font-size: 40px"">+</span>","null","","","","","","","","","",""
"","","","","","audio-button-response","173","1049708","0.0-10.0-2.70","https://mcdermottlab.mit.edu/mturk_stimuli/bjmedina/mem_exp_ind-nature_2025/sequences/isi_16/len120/seq058_len120_s15_isi-1p0_0p0_16p0.json","0.25","true","","3640","https://mcdermottlab.mit.edu/mturk_stimuli/bjmedina/mem_exp_ind-nature_2025/mem_stim_79.wav","0","main","","","false","mem_stim_79.wav","false","-1","","1","correct_rejection"
"","","","","","html-keyboard-response","174","1049774","0.0-10.0-1.71","https://mcdermottlab.mit.edu/mturk_stimuli/bjmedina/mem_exp_ind-nature_2025/sequences/isi_16/len120/seq058_len120_s15_isi-1p0_0p0_16p0.json","0.25","true","","null","<span style=""font-size: 40px"">+</span>","null","","","","","","","","","",""
"","","","","","audio-button-response","175","1052241","0.0-10.0-2.71","https://mcdermottlab.mit.edu/mturk_stimuli/bjmedina/mem_exp_ind-nature_2025/sequences/isi_16/len120/seq058_len120_s15_isi-1p0_0p0_16p0.json","0.25","true","","2469","https://mcdermottlab.mit.edu/mturk_stimuli/bjmedina/mem_exp_ind-nature_2025/mem_stim_74.wav","2","main","","","true","mem_stim_74.wav","false","16","","0","miss"
"","","","","","html-keyboard-response","176","1052317","0.0-10.0-1.72","https://mcdermottlab.mit.edu/mturk_stimuli/bjmedina/mem_exp_ind-nature_2025/sequences/isi_16/len120/seq058_len120_s15_isi-1p0_0p0_16p0.json","0.25","true","","null","<span style=""font-size: 40px"">+</span>","null","","","","","","","","","",""
"","","","","","audio-button-response","177","1056291","0.0-10.0-2.72","https://mcdermottlab.mit.edu/mturk_stimuli/bjmedina/mem_exp_ind-nature_2025/sequences/isi_16/len120/seq058_len120_s15_isi-1p0_0p0_16p0.json","0.25","true","","2731","https://mcdermottlab.mit.edu/mturk_stimuli/bjmedina/mem_exp_ind-nature_2025/mem_stim_36.wav","1","main","","","false","mem_stim_36.wav","false","-1","","0","false_alarm"
"","","","","","html-keyboard-response","178","1056357","0.0-10.0-1.73","https://mcdermottlab.mit.edu/mturk_stimuli/bjmedina/mem_exp_ind-nature_2025/sequences/isi_16/len120/seq058_len120_s15_isi-1p0_0p0_16p0.json","0.25","true","","null","<span style=""font-size: 40px"">+</span>","null","","","","","","","","","",""
"","","","","","audio-button-response","179","1060474","0.0-10.0-2.73","https://mcdermottlab.mit.edu/mturk_stimuli/bjmedina/mem_exp_ind-nature_2025/sequences/isi_16/len120/seq058_len120_s15_isi-1p0_0p0_16p0.json","0.25","true","","4112","https://mcdermottlab.mit.edu/mturk_stimuli/bjmedina/mem_exp_ind-nature_2025/mem_stim_5.wav","0","main","","","true","mem_stim_5.wav","false","16","","0","miss"
"","","","","","html-keyboard-response","180","1060547","0.0-10.0-1.74","https://mcdermottlab.mit.edu/mturk_stimuli/bjmedina/mem_exp_ind-nature_2025/sequences/isi_16/len120/seq058_len120_s15_isi-1p0_0p0_16p0.json","0.25","true","","null","<span style=""font-size: 40px"">+</span>","null","","","","","","","","","",""
"","","","","","audio-button-response","181","1064103","0.0-10.0-2.74","https://mcdermottlab.mit.edu/mturk_stimuli/bjmedina/mem_exp_ind-nature_2025/sequences/isi_16/len120/seq058_len120_s15_isi-1p0_0p0_16p0.json","0.25","true","","2571","https://mcdermottlab.mit.edu/mturk_stimuli/bjmedina/mem_exp_ind-nature_2025/mem_stim_19.wav","1","main","","","false","mem_stim_19.wav","false","-1","","0","false_alarm"
"","","","","","html-keyboard-response","182","1064170","0.0-10.0-1.75","https://mcdermottlab.mit.edu/mturk_stimuli/bjmedina/mem_exp_ind-nature_2025/sequences/isi_16/len120/seq058_len120_s15_isi-1p0_0p0_16p0.json","0.25","true","","null","<span style=""font-size: 40px"">+</span>","null","","","","","","","","","",""
"","","","","","audio-button-response","183","1068855","0.0-10.0-2.75","https://mcdermottlab.mit.edu/mturk_stimuli/bjmedina/mem_exp_ind-nature_2025/sequences/isi_16/len120/seq058_len120_s15_isi-1p0_0p0_16p0.json","0.25","true","","3240","https://mcdermottlab.mit.edu/mturk_stimuli/bjmedina/mem_exp_ind-nature_2025/mem_stim_56.wav","2","main","","","false","mem_stim_56.wav","false","-1","","1","correct_rejection"
"","","","","","html-keyboard-response","184","1068930","0.0-10.0-1.76","https://mcdermottlab.mit.edu/mturk_stimuli/bjmedina/mem_exp_ind-nature_2025/sequences/isi_16/len120/seq058_len120_s15_isi-1p0_0p0_16p0.json","0.25","true","","null","<span style=""font-size: 40px"">+</span>","null","","","","","","","","","",""
"","","","","","audio-button-response","185","1071417","0.0-10.0-2.76","https://mcdermottlab.mit.edu/mturk_stimuli/bjmedina/mem_exp_ind-nature_2025/sequences/isi_16/len120/seq058_len120_s15_isi-1p0_0p0_16p0.json","0.25","true","","2491","https://mcdermottlab.mit.edu/mturk_stimuli/bjmedina/mem_exp_ind-nature_2025/mem_stim_56.wav","3","main","","","true","mem_stim_56.wav","true","0","","0","miss"
"","","","","","html-keyboard-response","186","1071476","0.0-10.0-1.77","https://mcdermottlab.mit.edu/mturk_stimuli/bjmedina/mem_exp_ind-nature_2025/sequences/isi_16/len120/seq058_len120_s15_isi-1p0_0p0_16p0.json","0.25","true","","null","<span style=""font-size: 40px"">+</span>","null","","","","","","","","","",""
"","","","","","audio-button-response","187","1074613","0.0-10.0-2.77","https://mcdermottlab.mit.edu/mturk_stimuli/bjmedina/mem_exp_ind-nature_2025/sequences/isi_16/len120/seq058_len120_s15_isi-1p0_0p0_16p0.json","0.25","true","","3131","https://mcdermottlab.mit.edu/mturk_stimuli/bjmedina/mem_exp_ind-nature_2025/mem_stim_76.wav","3","main","","","true","mem_stim_76.wav","false","16","","0","miss"
"","","","","","html-keyboard-response","188","1074688","0.0-10.0-1.78","https://mcdermottlab.mit.edu/mturk_stimuli/bjmedina/mem_exp_ind-nature_2025/sequences/isi_16/len120/seq058_len120_s15_isi-1p0_0p0_16p0.json","0.25","true","","null","<span style=""font-size: 40px"">+</span>","null","","","","","","","","","",""
"","","","","","audio-button-response","189","1079734","0.0-10.0-2.78","https://mcdermottlab.mit.edu/mturk_stimuli/bjmedina/mem_exp_ind-nature_2025/sequences/isi_16/len120/seq058_len120_s15_isi-1p0_0p0_16p0.json","0.25","true","","4411","https://mcdermottlab.mit.edu/mturk_stimuli/bjmedina/mem_exp_ind-nature_2025/mem_stim_63.wav","1","main","","","false","mem_stim_63.wav","false","-1","","0","false_alarm"
"","","","","","html-keyboard-response","190","1079806","0.0-10.0-1.79","https://mcdermottlab.mit.edu/mturk_stimuli/bjmedina/mem_exp_ind-nature_2025/sequences/isi_16/len120/seq058_len120_s15_isi-1p0_0p0_16p0.json","0.25","true","","null","<span style=""font-size: 40px"">+</span>","null","","","","","","","","","",""
"","","","","","audio-button-response","191","1083703","0.0-10.0-2.79","https://mcdermottlab.mit.edu/mturk_stimuli/bjmedina/mem_exp_ind-nature_2025/sequences/isi_16/len120/seq058_len120_s15_isi-1p0_0p0_16p0.json","0.25","true","","2520","https://mcdermottlab.mit.edu/mturk_stimuli/bjmedina/mem_exp_ind-nature_2025/mem_stim_31.wav","2","main","","","false","mem_stim_31.wav","false","-1","","1","correct_rejection"
"","","","","","html-keyboard-response","192","1083770","0.0-10.0-1.80","https://mcdermottlab.mit.edu/mturk_stimuli/bjmedina/mem_exp_ind-nature_2025/sequences/isi_16/len120/seq058_len120_s15_isi-1p0_0p0_16p0.json","0.25","true","","null","<span style=""font-size: 40px"">+</span>","null","","","","","","","","","",""
"","","","","","audio-button-response","193","1088197","0.0-10.0-2.80","https://mcdermottlab.mit.edu/mturk_stimuli/bjmedina/mem_exp_ind-nature_2025/sequences/isi_16/len120/seq058_len120_s15_isi-1p0_0p0_16p0.json","0.25","true","","2680","https://mcdermottlab.mit.edu/mturk_stimuli/bjmedina/mem_exp_ind-nature_2025/mem_stim_72.wav","1","main","","","false","mem_stim_72.wav","false","-1","","0","false_alarm"
