"success","timeout","failed_images","failed_audio","failed_video","trial_type","trial_index","time_elapsed","internal_node_id","sequence_file","pay","passed_hc","completion_code","view_history","rt","stimulus","response","stim_type","hc_answer","correct_hc","repeat","yt_id","catch","isi","type","is_correct","response_type"
"true","false","[]","[]","[]","preload","0","683","0.0-0.0","https://mcdermottlab.mit.edu/mturk_stimuli/bjmedina/mem_exp_ind-nature_2025/sequences/isi_16/len120/seq068_len120_s15_isi-1p0_0p0_16p0.json","11.04","true","jy752y8crvr","","","","","","","","","","","","","",""
"","","","","","instructions","1","4330","0.0-1.0","https://mcdermottlab.mit.edu/mturk_stimuli/bjmedina/mem_exp_ind-nature_2025/sequences/isi_16/len120/seq068_len120_s15_isi-1p0_0p0_16p0.json","11.04","true","jy752y8crvr","[{""page_index"":0,""viewing_time"":3644}]","3645","","","","","","","","","","","",""
"","","","","","instructions","2","17603","0.0-2.0","https://mcdermottlab.mit.edu/mturk_stimuli/bjmedina/mem_exp_ind-nature_2025/sequences/isi_16/len120/seq068_len120_s15_isi-1p0_0p0_16p0.json","11.04","true","jy752y8crvr","[{""page_index"":0,""viewing_time"":13272}]","13273","","","","","","","","","","","",""
"","","","","","audio-button-response","3","65373","0.0-3.0-0.0","https://mcdermottlab.mit.edu/mturk_stimuli/bjmedina/mem_exp_ind-nature_2025/sequences/isi_16/len120/seq068_len120_s15_isi-1p0_0p0_16p0.json","11.04","true","jy752y8crvr","","46880","https://mcdermottlab.mit.edu/bjmedina/experiments/mem_exp_v01/assets/noise_calib_stim.wav","0","","","","","","","","","",""
"","","","","","audio-button-response","4","69025","0.0-3.1-0.1","https://mcdermottlab.mit.edu/mturk_stimuli/bjmedina/mem_exp_ind-nature_2025/sequences/isi_16/len120/seq068_len120_s15_isi-1p0_0p0_16p0.json","11.04","true","jy752y8crvr","","3411","https://mcdermottlab.mit.edu/bjmedina/experiments/mem_exp_v01/assets/noise_calib_stim.wav","0","","","","","","","","","",""
"","","","","","audio-button-response","5","72891","0.0-3.2-0.2","https://mcdermottlab.mit.edu/mturk_stimuli/bjmedina/mem_exp_ind-nature_2025/sequences/isi_16/len120/seq068_len120_s15_isi-1p0_0p0_16p0.json","11.04","true","jy752y8crvr","","3869","https://mcdermottlab.mit.edu/bjmedina/experiments/mem_exp_v01/assets/noise_calib_stim.wav","0","","","","","","","","","",""
"","","","","","audio-button-response","6","75760","0.0-3.3-0.3","https://mcdermottlab.mit.edu/mturk_stimuli/bjmedina/mem_exp_ind-nature_2025/sequences/isi_16/len120/seq068_len120_s15_isi-1p0_0p0_16p0.json","11.04","true","jy752y8crvr","","2861","https://mcdermottlab.mit.edu/bjmedina/experiments/mem_exp_v01/assets/noise_calib_stim.wav","1","","","","","","","","","",""
"","","","","","instructions","7","100232","0.0-4.0","https://mcdermottlab.mit.edu/mturk_stimuli/bjmedina/mem_exp_ind-nature_2025/sequences/isi_16/len120/seq068_len120_s15_isi-1p0_0p0_16p0.json","11.04","true","jy752y8crvr","[{""page_index"":0,""viewing_time"":24471}]","24472","","","","","","","","","","","",""
"","","","","","audio-button-response","8","112709","0.0-5.0-0.0","https://mcdermottlab.mit.edu/mturk_stimuli/bjmedina/mem_exp_ind-nature_2025/sequences/isi_16/len120/seq068_len120_s15_isi-1p0_0p0_16p0.json","11.04","true","jy752y8crvr","","8680","https://mcdermottlab.mit.edu/bjmedina/experiments/mem_exp_v01/assets/antiphase_HC_SIO.wav","0","hc","1","1","","","","","","",""
"","","","","","audio-button-response","9","124146","0.0-5.0-0.1","https://mcdermottlab.mit.edu/mturk_stimuli/bjmedina/mem_exp_ind-nature_2025/sequences/isi_16/len120/seq068_len120_s15_isi-1p0_0p0_16p0.json","11.04","true","jy752y8crvr","","7800","https://mcdermottlab.mit.edu/bjmedina/experiments/mem_exp_v01/assets/antiphase_HC_IOS.wav","2","hc","3","1","","","","","","",""
"","","","","","audio-button-response","10","132393","0.0-5.0-0.2","https://mcdermottlab.mit.edu/mturk_stimuli/bjmedina/mem_exp_ind-nature_2025/sequences/isi_16/len120/seq068_len120_s15_isi-1p0_0p0_16p0.json","11.04","true","jy752y8crvr","","5181","https://mcdermottlab.mit.edu/bjmedina/experiments/mem_exp_v01/assets/antiphase_HC_SOI.wav","0","hc","1","1","","","","","","",""
"","","","","","audio-button-response","11","140903","0.0-5.0-0.3","https://mcdermottlab.mit.edu/mturk_stimuli/bjmedina/mem_exp_ind-nature_2025/sequences/isi_16/len120/seq068_len120_s15_isi-1p0_0p0_16p0.json","11.04","true","jy752y8crvr","","5069","https://mcdermottlab.mit.edu/bjmedina/experiments/mem_exp_v01/assets/antiphase_HC_ISO.wav","1","hc","2","1","","","","","","",""
"","","","","","audio-button-response","12","149119","0.0-5.0-0.4","https://mcdermottlab.mit.edu/mturk_stimuli/bjmedina/mem_exp_ind-nature_2025/sequences/isi_16/len120/seq068_len120_s15_isi-1p0_0p0_16p0.json","11.04","true","jy752y8crvr","","5091","https://mcdermottlab.mit.edu/bjmedina/experiments/mem_exp_v01/assets/antiphase_HC_OIS.wav","2","hc","3","1","","","","","","",""
"","","","","","audio-button-response","13","158058","0.0-5.0-0.5","https://mcdermottlab.mit.edu/mturk_stimuli/bjmedina/mem_exp_ind-nature_2025/sequences/isi_16/len120/seq068_len120_s15_isi-1p0_0p0_16p0.json","11.04","true","jy752y8crvr","","5048","https://mcdermottlab.mit.edu/bjmedina/experiments/mem_exp_v01/assets/antiphase_HC_OSI.wav","1","hc","2","1","","","","","","",""
"","","","","","html-keyboard-response","14","160232","0.0-6.0","https://mcdermottlab.mit.edu/mturk_stimuli/bjmedina/mem_exp_ind-nature_2025/sequences/isi_16/len120/seq068_len120_s15_isi-1p0_0p0_16p0.json","11.04","true","jy752y8crvr","","2173","<h1>You have finished the LOUDNESS task!</h1> <p>Press space to continue</p>"," ","","","","","","","","","",""
"","","","","","instructions","15","251874","0.0-7.0","https://mcdermottlab.mit.edu/mturk_stimuli/bjmedina/mem_exp_ind-nature_2025/sequences/isi_16/len120/seq068_len120_s15_isi-1p0_0p0_16p0.json","11.04","true","jy752y8crvr","[{""page_index"":0,""viewing_time"":9551},{""page_index"":1,""viewing_time"":25756},{""page_index"":2,""viewing_time"":45422},{""page_index"":3,""viewing_time"":10913}]","91641","","","","","","","","","","","",""
"","","","","","html-keyboard-response","16","251929","0.0-8.0-0.0","https://mcdermottlab.mit.edu/mturk_stimuli/bjmedina/mem_exp_ind-nature_2025/sequences/isi_16/len120/seq068_len120_s15_isi-1p0_0p0_16p0.json","11.04","true","jy752y8crvr","","null","<span style=""font-size: 40px"">+</span>","null","fixation","","","","","","","","",""
"","","","","","audio-button-response","17","265042","0.0-8.0-1.0","https://mcdermottlab.mit.edu/mturk_stimuli/bjmedina/mem_exp_ind-nature_2025/sequences/isi_16/len120/seq068_len120_s15_isi-1p0_0p0_16p0.json","11.04","true","jy752y8crvr","","8099","https://mcdermottlab.mit.edu/mturk_stimuli/bjmedina/mem_exp_v05/mem_stim_1023_f32.wav","0","demo","","","0","","","","","",""
"","","","","","html-keyboard-response","18","265099","0.0-8.0-0.1","https://mcdermottlab.mit.edu/mturk_stimuli/bjmedina/mem_exp_ind-nature_2025/sequences/isi_16/len120/seq068_len120_s15_isi-1p0_0p0_16p0.json","11.04","true","jy752y8crvr","","null","<span style=""font-size: 40px"">+</span>","null","fixation","","","","","","","","",""
"","","","","","audio-button-response","19","279244","0.0-8.0-1.1","https://mcdermottlab.mit.edu/mturk_stimuli/bjmedina/mem_exp_ind-nature_2025/sequences/isi_16/len120/seq068_len120_s15_isi-1p0_0p0_16p0.json","11.04","true","jy752y8crvr","","10331","https://mcdermottlab.mit.edu/mturk_stimuli/bjmedina/mem_exp_v05/mem_stim_1022_f32.wav","2","demo","","","0","","","","","",""
"","","","","","html-keyboard-response","20","279303","0.0-8.0-0.2","https://mcdermottlab.mit.edu/mturk_stimuli/bjmedina/mem_exp_ind-nature_2025/sequences/isi_16/len120/seq068_len120_s15_isi-1p0_0p0_16p0.json","11.04","true","jy752y8crvr","","null","<span style=""font-size: 40px"">+</span>","null","fixation","","","","","","","","",""
"","","","","","audio-button-response","21","283509","0.0-8.0-1.2","https://mcdermottlab.mit.edu/mturk_stimuli/bjmedina/mem_exp_ind-nature_2025/sequences/isi_16/len120/seq068_len120_s15_isi-1p0_0p0_16p0.json","11.04","true","jy752y8crvr","","4200","https://mcdermottlab.mit.edu/mturk_stimuli/bjmedina/mem_exp_v05/mem_stim_1022_f32.wav","3","demo","","","1","","","","","",""
"","","","","","html-keyboard-response","22","283568","0.0-8.0-0.3","https://mcdermottlab.mit.edu/mturk_stimuli/bjmedina/mem_exp_ind-nature_2025/sequences/isi_16/len120/seq068_len120_s15_isi-1p0_0p0_16p0.json","11.04","true","jy752y8crvr","","null","<span style=""font-size: 40px"">+</span>","null","fixation","","","","","","","","",""
"","","","","","audio-button-response","23","292812","0.0-8.0-1.3","https://mcdermottlab.mit.edu/mturk_stimuli/bjmedina/mem_exp_ind-nature_2025/sequences/isi_16/len120/seq068_len120_s15_isi-1p0_0p0_16p0.json","11.04","true","jy752y8crvr","","5469","https://mcdermottlab.mit.edu/mturk_stimuli/bjmedina/mem_exp_v05/mem_stim_1021_f32.wav","3","demo","","","0","","","","","",""
"","","","","","html-keyboard-response","24","292870","0.0-8.0-0.4","https://mcdermottlab.mit.edu/mturk_stimuli/bjmedina/mem_exp_ind-nature_2025/sequences/isi_16/len120/seq068_len120_s15_isi-1p0_0p0_16p0.json","11.04","true","jy752y8crvr","","null","<span style=""font-size: 40px"">+</span>","null","fixation","","","","","","","","",""
"","","","","","audio-button-response","25","295748","0.0-8.0-1.4","https://mcdermottlab.mit.edu/mturk_stimuli/bjmedina/mem_exp_ind-nature_2025/sequences/isi_16/len120/seq068_len120_s15_isi-1p0_0p0_16p0.json","11.04","true","jy752y8crvr","","2869","https://mcdermottlab.mit.edu/mturk_stimuli/bjmedina/mem_exp_v05/mem_stim_1023_f32.wav","0","demo","","","1","","","","","",""
"","","","","","html-keyboard-response","26","295806","0.0-8.0-0.5","https://mcdermottlab.mit.edu/mturk_stimuli/bjmedina/mem_exp_ind-nature_2025/sequences/isi_16/len120/seq068_len120_s15_isi-1p0_0p0_16p0.json","11.04","true","jy752y8crvr","","null","<span style=""font-size: 40px"">+</span>","null","fixation","","","","","","","","",""
"","","","","","audio-button-response","27","302034","0.0-8.0-1.5","https://mcdermottlab.mit.edu/mturk_stimuli/bjmedina/mem_exp_ind-nature_2025/sequences/isi_16/len120/seq068_len120_s15_isi-1p0_0p0_16p0.json","11.04","true","jy752y8crvr","","2939","https://mcdermottlab.mit.edu/mturk_stimuli/bjmedina/mem_exp_v05/mem_stim_1020_f32.wav","0","demo","","","0","","","","","",""
"","","","","","html-keyboard-response","28","302090","0.0-8.0-0.6","https://mcdermottlab.mit.edu/mturk_stimuli/bjmedina/mem_exp_ind-nature_2025/sequences/isi_16/len120/seq068_len120_s15_isi-1p0_0p0_16p0.json","11.04","true","jy752y8crvr","","null","<span style=""font-size: 40px"">+</span>","null","fixation","","","","","","","","",""
"","","","","","audio-button-response","29","306567","0.0-8.0-1.6","https://mcdermottlab.mit.edu/mturk_stimuli/bjmedina/mem_exp_ind-nature_2025/sequences/isi_16/len120/seq068_len120_s15_isi-1p0_0p0_16p0.json","11.04","true","jy752y8crvr","","2731","https://mcdermottlab.mit.edu/mturk_stimuli/bjmedina/mem_exp_v05/mem_stim_1019_f32.wav","0","demo","","","0","","","","","",""
"","","","","","html-keyboard-response","30","306625","0.0-8.0-0.7","https://mcdermottlab.mit.edu/mturk_stimuli/bjmedina/mem_exp_ind-nature_2025/sequences/isi_16/len120/seq068_len120_s15_isi-1p0_0p0_16p0.json","11.04","true","jy752y8crvr","","null","<span style=""font-size: 40px"">+</span>","null","fixation","","","","","","","","",""
"","","","","","audio-button-response","31","309909","0.0-8.0-1.7","https://mcdermottlab.mit.edu/mturk_stimuli/bjmedina/mem_exp_ind-nature_2025/sequences/isi_16/len120/seq068_len120_s15_isi-1p0_0p0_16p0.json","11.04","true","jy752y8crvr","","3280","https://mcdermottlab.mit.edu/mturk_stimuli/bjmedina/mem_exp_v05/mem_stim_1021_f32.wav","3","demo","","","1","","","","","",""
"","","","","","html-keyboard-response","32","312210","0.0-9.0","https://mcdermottlab.mit.edu/mturk_stimuli/bjmedina/mem_exp_ind-nature_2025/sequences/isi_16/len120/seq068_len120_s15_isi-1p0_0p0_16p0.json","11.04","true","jy752y8crvr","","2300","<p>You are now ready to start the experiment. Press SPACE when you are ready to start.</p>"," ","","","","","","","","","",""
"","","","","","html-keyboard-response","33","312263","0.0-10.0-1.0","https://mcdermottlab.mit.edu/mturk_stimuli/bjmedina/mem_exp_ind-nature_2025/sequences/isi_16/len120/seq068_len120_s15_isi-1p0_0p0_16p0.json","11.04","true","jy752y8crvr","","null","<span style=""font-size: 40px"">+</span>","null","","","","","","","","","",""
"","","","","","audio-button-response","34","319312","0.0-10.0-2.0","https://mcdermottlab.mit.edu/mturk_stimuli/bjmedina/mem_exp_ind-nature_2025/sequences/isi_16/len120/seq068_len120_s15_isi-1p0_0p0_16p0.json","11.04","true","jy752y8crvr","","3128","https://mcdermottlab.mit.edu/mturk_stimuli/bjmedina/mem_exp_ind-nature_2025/mem_stim_64.wav","0","main","","","false","mem_stim_64.wav","false","-1","","1","correct_rejection"
"","","","","","html-keyboard-response","35","319381","0.0-10.0-1.1","https://mcdermottlab.mit.edu/mturk_stimuli/bjmedina/mem_exp_ind-nature_2025/sequences/isi_16/len120/seq068_len120_s15_isi-1p0_0p0_16p0.json","11.04","true","jy752y8crvr","","null","<span style=""font-size: 40px"">+</span>","null","","","","","","","","","",""
"","","","","","audio-button-response","36","324436","0.0-10.0-2.1","https://mcdermottlab.mit.edu/mturk_stimuli/bjmedina/mem_exp_ind-nature_2025/sequences/isi_16/len120/seq068_len120_s15_isi-1p0_0p0_16p0.json","11.04","true","jy752y8crvr","","2600","https://mcdermottlab.mit.edu/mturk_stimuli/bjmedina/mem_exp_ind-nature_2025/mem_stim_27.wav","3","main","","","false","mem_stim_27.wav","false","-1","","1","correct_rejection"
"","","","","","html-keyboard-response","37","324503","0.0-10.0-1.2","https://mcdermottlab.mit.edu/mturk_stimuli/bjmedina/mem_exp_ind-nature_2025/sequences/isi_16/len120/seq068_len120_s15_isi-1p0_0p0_16p0.json","11.04","true","jy752y8crvr","","null","<span style=""font-size: 40px"">+</span>","null","","","","","","","","","",""
"","","","","","audio-button-response","38","327859","0.0-10.0-2.2","https://mcdermottlab.mit.edu/mturk_stimuli/bjmedina/mem_exp_ind-nature_2025/sequences/isi_16/len120/seq068_len120_s15_isi-1p0_0p0_16p0.json","11.04","true","jy752y8crvr","","2211","https://mcdermottlab.mit.edu/mturk_stimuli/bjmedina/mem_exp_ind-nature_2025/mem_stim_60.wav","0","main","","","false","mem_stim_60.wav","false","-1","","1","correct_rejection"
"","","","","","html-keyboard-response","39","327929","0.0-10.0-1.3","https://mcdermottlab.mit.edu/mturk_stimuli/bjmedina/mem_exp_ind-nature_2025/sequences/isi_16/len120/seq068_len120_s15_isi-1p0_0p0_16p0.json","11.04","true","jy752y8crvr","","null","<span style=""font-size: 40px"">+</span>","null","","","","","","","","","",""
"","","","","","audio-button-response","40","330817","0.0-10.0-2.3","https://mcdermottlab.mit.edu/mturk_stimuli/bjmedina/mem_exp_ind-nature_2025/sequences/isi_16/len120/seq068_len120_s15_isi-1p0_0p0_16p0.json","11.04","true","jy752y8crvr","","2120","https://mcdermottlab.mit.edu/mturk_stimuli/bjmedina/mem_exp_ind-nature_2025/mem_stim_1.wav","0","main","","","false","mem_stim_1.wav","false","-1","","1","correct_rejection"
"","","","","","html-keyboard-response","41","330885","0.0-10.0-1.4","https://mcdermottlab.mit.edu/mturk_stimuli/bjmedina/mem_exp_ind-nature_2025/sequences/isi_16/len120/seq068_len120_s15_isi-1p0_0p0_16p0.json","11.04","true","jy752y8crvr","","null","<span style=""font-size: 40px"">+</span>","null","","","","","","","","","",""
"","","","","","audio-button-response","42","334117","0.0-10.0-2.4","https://mcdermottlab.mit.edu/mturk_stimuli/bjmedina/mem_exp_ind-nature_2025/sequences/isi_16/len120/seq068_len120_s15_isi-1p0_0p0_16p0.json","11.04","true","jy752y8crvr","","2019","https://mcdermottlab.mit.edu/mturk_stimuli/bjmedina/mem_exp_ind-nature_2025/mem_stim_2.wav","0","main","","","false","mem_stim_2.wav","false","-1","","1","correct_rejection"
"","","","","","html-keyboard-response","43","334192","0.0-10.0-1.5","https://mcdermottlab.mit.edu/mturk_stimuli/bjmedina/mem_exp_ind-nature_2025/sequences/isi_16/len120/seq068_len120_s15_isi-1p0_0p0_16p0.json","11.04","true","jy752y8crvr","","null","<span style=""font-size: 40px"">+</span>","null","","","","","","","","","",""
"","","","","","audio-button-response","44","342127","0.0-10.0-2.5","https://mcdermottlab.mit.edu/mturk_stimuli/bjmedina/mem_exp_ind-nature_2025/sequences/isi_16/len120/seq068_len120_s15_isi-1p0_0p0_16p0.json","11.04","true","jy752y8crvr","","6851","https://mcdermottlab.mit.edu/mturk_stimuli/bjmedina/mem_exp_ind-nature_2025/mem_stim_57.wav","0","main","","","false","mem_stim_57.wav","false","-1","","1","correct_rejection"
"","","","","","html-keyboard-response","45","342194","0.0-10.0-1.6","https://mcdermottlab.mit.edu/mturk_stimuli/bjmedina/mem_exp_ind-nature_2025/sequences/isi_16/len120/seq068_len120_s15_isi-1p0_0p0_16p0.json","11.04","true","jy752y8crvr","","null","<span style=""font-size: 40px"">+</span>","null","","","","","","","","","",""
"","","","","","audio-button-response","46","348355","0.0-10.0-2.6","https://mcdermottlab.mit.edu/mturk_stimuli/bjmedina/mem_exp_ind-nature_2025/sequences/isi_16/len120/seq068_len120_s15_isi-1p0_0p0_16p0.json","11.04","true","jy752y8crvr","","3069","https://mcdermottlab.mit.edu/mturk_stimuli/bjmedina/mem_exp_ind-nature_2025/mem_stim_7.wav","0","main","","","false","mem_stim_7.wav","false","-1","","1","correct_rejection"
"","","","","","html-keyboard-response","47","348431","0.0-10.0-1.7","https://mcdermottlab.mit.edu/mturk_stimuli/bjmedina/mem_exp_ind-nature_2025/sequences/isi_16/len120/seq068_len120_s15_isi-1p0_0p0_16p0.json","11.04","true","jy752y8crvr","","null","<span style=""font-size: 40px"">+</span>","null","","","","","","","","","",""
"","","","","","audio-button-response","48","352330","0.0-10.0-2.7","https://mcdermottlab.mit.edu/mturk_stimuli/bjmedina/mem_exp_ind-nature_2025/sequences/isi_16/len120/seq068_len120_s15_isi-1p0_0p0_16p0.json","11.04","true","jy752y8crvr","","2709","https://mcdermottlab.mit.edu/mturk_stimuli/bjmedina/mem_exp_ind-nature_2025/mem_stim_42.wav","0","main","","","false","mem_stim_42.wav","false","-1","","1","correct_rejection"
"","","","","","html-keyboard-response","49","352399","0.0-10.0-1.8","https://mcdermottlab.mit.edu/mturk_stimuli/bjmedina/mem_exp_ind-nature_2025/sequences/isi_16/len120/seq068_len120_s15_isi-1p0_0p0_16p0.json","11.04","true","jy752y8crvr","","null","<span style=""font-size: 40px"">+</span>","null","","","","","","","","","",""
"","","","","","audio-button-response","50","356487","0.0-10.0-2.8","https://mcdermottlab.mit.edu/mturk_stimuli/bjmedina/mem_exp_ind-nature_2025/sequences/isi_16/len120/seq068_len120_s15_isi-1p0_0p0_16p0.json","11.04","true","jy752y8crvr","","2629","https://mcdermottlab.mit.edu/mturk_stimuli/bjmedina/mem_exp_ind-nature_2025/mem_stim_13.wav","0","main","","","false","mem_stim_13.wav","false","-1","","1","correct_rejection"
"","","","","","html-keyboard-response","51","356553","0.0-10.0-1.9","https://mcdermottlab.mit.edu/mturk_stimuli/bjmedina/mem_exp_ind-nature_2025/sequences/isi_16/len120/seq068_len120_s15_isi-1p0_0p0_16p0.json","11.04","true","jy752y8crvr","","null","<span style=""font-size: 40px"">+</span>","null","","","","","","","","","",""
"","","","","","audio-button-response","52","360906","0.0-10.0-2.9","https://mcdermottlab.mit.edu/mturk_stimuli/bjmedina/mem_exp_ind-nature_2025/sequences/isi_16/len120/seq068_len120_s15_isi-1p0_0p0_16p0.json","11.04","true","jy752y8crvr","","3429","https://mcdermottlab.mit.edu/mturk_stimuli/bjmedina/mem_exp_ind-nature_2025/mem_stim_46.wav","2","main","","","false","mem_stim_46.wav","false","-1","","1","correct_rejection"
"","","","","","html-keyboard-response","53","360979","0.0-10.0-1.10","https://mcdermottlab.mit.edu/mturk_stimuli/bjmedina/mem_exp_ind-nature_2025/sequences/isi_16/len120/seq068_len120_s15_isi-1p0_0p0_16p0.json","11.04","true","jy752y8crvr","","null","<span style=""font-size: 40px"">+</span>","null","","","","","","","","","",""
"","","","","","audio-button-response","54","364376","0.0-10.0-2.10","https://mcdermottlab.mit.edu/mturk_stimuli/bjmedina/mem_exp_ind-nature_2025/sequences/isi_16/len120/seq068_len120_s15_isi-1p0_0p0_16p0.json","11.04","true","jy752y8crvr","","2181","https://mcdermottlab.mit.edu/mturk_stimuli/bjmedina/mem_exp_ind-nature_2025/mem_stim_39.wav","0","main","","","false","mem_stim_39.wav","false","-1","","1","correct_rejection"
"","","","","","html-keyboard-response","55","364438","0.0-10.0-1.11","https://mcdermottlab.mit.edu/mturk_stimuli/bjmedina/mem_exp_ind-nature_2025/sequences/isi_16/len120/seq068_len120_s15_isi-1p0_0p0_16p0.json","11.04","true","jy752y8crvr","","null","<span style=""font-size: 40px"">+</span>","null","","","","","","","","","",""
"","","","","","audio-button-response","56","368007","0.0-10.0-2.11","https://mcdermottlab.mit.edu/mturk_stimuli/bjmedina/mem_exp_ind-nature_2025/sequences/isi_16/len120/seq068_len120_s15_isi-1p0_0p0_16p0.json","11.04","true","jy752y8crvr","","2149","https://mcdermottlab.mit.edu/mturk_stimuli/bjmedina/mem_exp_ind-nature_2025/mem_stim_4.wav","0","main","","","false","mem_stim_4.wav","false","-1","","1","correct_rejection"
"","","","","","html-keyboard-response","57","368087","0.0-10.0-1.12","https://mcdermottlab.mit.edu/mturk_stimuli/bjmedina/mem_exp_ind-nature_2025/sequences/isi_16/len120/seq068_len120_s15_isi-1p0_0p0_16p0.json","11.04","true","jy752y8crvr","","null","<span style=""font-size: 40px"">+</span>","null","","","","","","","","","",""
"","","","","","audio-button-response","58","371657","0.0-10.0-2.12","https://mcdermottlab.mit.edu/mturk_stimuli/bjmedina/mem_exp_ind-nature_2025/sequences/isi_16/len120/seq068_len120_s15_isi-1p0_0p0_16p0.json","11.04","true","jy752y8crvr","","2712","https://mcdermottlab.mit.edu/mturk_stimuli/bjmedina/mem_exp_ind-nature_2025/mem_stim_48.wav","0","main","","","false","mem_stim_48.wav","false","-1","","1","correct_rejection"
"","","","","","html-keyboard-response","59","371730","0.0-10.0-1.13","https://mcdermottlab.mit.edu/mturk_stimuli/bjmedina/mem_exp_ind-nature_2025/sequences/isi_16/len120/seq068_len120_s15_isi-1p0_0p0_16p0.json","11.04","true","jy752y8crvr","","null","<span style=""font-size: 40px"">+</span>","null","","","","","","","","","",""
"","","","","","audio-button-response","60","375547","0.0-10.0-2.13","https://mcdermottlab.mit.edu/mturk_stimuli/bjmedina/mem_exp_ind-nature_2025/sequences/isi_16/len120/seq068_len120_s15_isi-1p0_0p0_16p0.json","11.04","true","jy752y8crvr","","2819","https://mcdermottlab.mit.edu/mturk_stimuli/bjmedina/mem_exp_ind-nature_2025/mem_stim_6.wav","0","main","","","false","mem_stim_6.wav","false","-1","","1","correct_rejection"
"","","","","","html-keyboard-response","61","375620","0.0-10.0-1.14","https://mcdermottlab.mit.edu/mturk_stimuli/bjmedina/mem_exp_ind-nature_2025/sequences/isi_16/len120/seq068_len120_s15_isi-1p0_0p0_16p0.json","11.04","true","jy752y8crvr","","null","<span style=""font-size: 40px"">+</span>","null","","","","","","","","","",""
"","","","","","audio-button-response","62","380176","0.0-10.0-2.14","https://mcdermottlab.mit.edu/mturk_stimuli/bjmedina/mem_exp_ind-nature_2025/sequences/isi_16/len120/seq068_len120_s15_isi-1p0_0p0_16p0.json","11.04","true","jy752y8crvr","","3651","https://mcdermottlab.mit.edu/mturk_stimuli/bjmedina/mem_exp_ind-nature_2025/mem_stim_78.wav","1","main","","","false","mem_stim_78.wav","false","-1","","0","false_alarm"
"","","","","","html-keyboard-response","63","380243","0.0-10.0-1.15","https://mcdermottlab.mit.edu/mturk_stimuli/bjmedina/mem_exp_ind-nature_2025/sequences/isi_16/len120/seq068_len120_s15_isi-1p0_0p0_16p0.json","11.04","true","jy752y8crvr","","null","<span style=""font-size: 40px"">+</span>","null","","","","","","","","","",""
"","","","","","audio-button-response","64","384176","0.0-10.0-2.15","https://mcdermottlab.mit.edu/mturk_stimuli/bjmedina/mem_exp_ind-nature_2025/sequences/isi_16/len120/seq068_len120_s15_isi-1p0_0p0_16p0.json","11.04","true","jy752y8crvr","","3931","https://mcdermottlab.mit.edu/mturk_stimuli/bjmedina/mem_exp_ind-nature_2025/mem_stim_78.wav","3","main","","","true","mem_stim_78.wav","true","0","","0","miss"
"","","","","","html-keyboard-response","65","384253","0.0-10.0-1.16","https://mcdermottlab.mit.edu/mturk_stimuli/bjmedina/mem_exp_ind-nature_2025/sequences/isi_16/len120/seq068_len120_s15_isi-1p0_0p0_16p0.json","11.04","true","jy752y8crvr","","null","<span style=""font-size: 40px"">+</span>","null","","","","","","","","","",""
"","","","","","audio-button-response","66","388562","0.0-10.0-2.16","https://mcdermottlab.mit.edu/mturk_stimuli/bjmedina/mem_exp_ind-nature_2025/sequences/isi_16/len120/seq068_len120_s15_isi-1p0_0p0_16p0.json","11.04","true","jy752y8crvr","","2829","https://mcdermottlab.mit.edu/mturk_stimuli/bjmedina/mem_exp_ind-nature_2025/mem_stim_22.wav","0","main","","","false","mem_stim_22.wav","false","-1","","1","correct_rejection"
"","","","","","html-keyboard-response","67","388629","0.0-10.0-1.17","https://mcdermottlab.mit.edu/mturk_stimuli/bjmedina/mem_exp_ind-nature_2025/sequences/isi_16/len120/seq068_len120_s15_isi-1p0_0p0_16p0.json","11.04","true","jy752y8crvr","","null","<span style=""font-size: 40px"">+</span>","null","","","","","","","","","",""
"","","","","","audio-button-response","68","392424","0.0-10.0-2.17","https://mcdermottlab.mit.edu/mturk_stimuli/bjmedina/mem_exp_ind-nature_2025/sequences/isi_16/len120/seq068_len120_s15_isi-1p0_0p0_16p0.json","11.04","true","jy752y8crvr","","2669","https://mcdermottlab.mit.edu/mturk_stimuli/bjmedina/mem_exp_ind-nature_2025/mem_stim_50.wav","0","main","","","false","mem_stim_50.wav","false","-1","","1","correct_rejection"
"","","","","","html-keyboard-response","69","392499","0.0-10.0-1.18","https://mcdermottlab.mit.edu/mturk_stimuli/bjmedina/mem_exp_ind-nature_2025/sequences/isi_16/len120/seq068_len120_s15_isi-1p0_0p0_16p0.json","11.04","true","jy752y8crvr","","null","<span style=""font-size: 40px"">+</span>","null","","","","","","","","","",""
"","","","","","audio-button-response","70","395802","0.0-10.0-2.18","https://mcdermottlab.mit.edu/mturk_stimuli/bjmedina/mem_exp_ind-nature_2025/sequences/isi_16/len120/seq068_len120_s15_isi-1p0_0p0_16p0.json","11.04","true","jy752y8crvr","","3299","https://mcdermottlab.mit.edu/mturk_stimuli/bjmedina/mem_exp_ind-nature_2025/mem_stim_27.wav","2","main","","","true","mem_stim_27.wav","false","16","","0","miss"
"","","","","","html-keyboard-response","71","395877","0.0-10.0-1.19","https://mcdermottlab.mit.edu/mturk_stimuli/bjmedina/mem_exp_ind-nature_2025/sequences/isi_16/len120/seq068_len120_s15_isi-1p0_0p0_16p0.json","11.04","true","jy752y8crvr","","null","<span style=""font-size: 40px"">+</span>","null","","","","","","","","","",""
"","","","","","audio-button-response","72","399969","0.0-10.0-2.19","https://mcdermottlab.mit.edu/mturk_stimuli/bjmedina/mem_exp_ind-nature_2025/sequences/isi_16/len120/seq068_len120_s15_isi-1p0_0p0_16p0.json","11.04","true","jy752y8crvr","","2669","https://mcdermottlab.mit.edu/mturk_stimuli/bjmedina/mem_exp_ind-nature_2025/mem_stim_24.wav","0","main","","","false","mem_stim_24.wav","false","-1","","1","correct_rejection"
"","","","","","html-keyboard-response","73","400045","0.0-10.0-1.20","https://mcdermottlab.mit.edu/mturk_stimuli/bjmedina/mem_exp_ind-nature_2025/sequences/isi_16/len120/seq068_len120_s15_isi-1p0_0p0_16p0.json","11.04","true","jy752y8crvr","","null","<span style=""font-size: 40px"">+</span>","null","","","","","","","","","",""
"","","","","","audio-button-response","74","402683","0.0-10.0-2.20","https://mcdermottlab.mit.edu/mturk_stimuli/bjmedina/mem_exp_ind-nature_2025/sequences/isi_16/len120/seq068_len120_s15_isi-1p0_0p0_16p0.json","11.04","true","jy752y8crvr","","2640","https://mcdermottlab.mit.edu/mturk_stimuli/bjmedina/mem_exp_ind-nature_2025/mem_stim_1.wav","0","main","","","true","mem_stim_1.wav","false","16","","0","miss"
"","","","","","html-keyboard-response","75","402745","0.0-10.0-1.21","https://mcdermottlab.mit.edu/mturk_stimuli/bjmedina/mem_exp_ind-nature_2025/sequences/isi_16/len120/seq068_len120_s15_isi-1p0_0p0_16p0.json","11.04","true","jy752y8crvr","","null","<span style=""font-size: 40px"">+</span>","null","","","","","","","","","",""
"","","","","","audio-button-response","76","405163","0.0-10.0-2.21","https://mcdermottlab.mit.edu/mturk_stimuli/bjmedina/mem_exp_ind-nature_2025/sequences/isi_16/len120/seq068_len120_s15_isi-1p0_0p0_16p0.json","11.04","true","jy752y8crvr","","2421","https://mcdermottlab.mit.edu/mturk_stimuli/bjmedina/mem_exp_ind-nature_2025/mem_stim_2.wav","2","main","","","true","mem_stim_2.wav","false","16","","0","miss"
"","","","","","html-keyboard-response","77","405244","0.0-10.0-1.22","https://mcdermottlab.mit.edu/mturk_stimuli/bjmedina/mem_exp_ind-nature_2025/sequences/isi_16/len120/seq068_len120_s15_isi-1p0_0p0_16p0.json","11.04","true","jy752y8crvr","","null","<span style=""font-size: 40px"">+</span>","null","","","","","","","","","",""
"","","","","","audio-button-response","78","409539","0.0-10.0-2.22","https://mcdermottlab.mit.edu/mturk_stimuli/bjmedina/mem_exp_ind-nature_2025/sequences/isi_16/len120/seq068_len120_s15_isi-1p0_0p0_16p0.json","11.04","true","jy752y8crvr","","3120","https://mcdermottlab.mit.edu/mturk_stimuli/bjmedina/mem_exp_ind-nature_2025/mem_stim_9.wav","2","main","","","false","mem_stim_9.wav","false","-1","","1","correct_rejection"
"","","","","","html-keyboard-response","79","409620","0.0-10.0-1.23","https://mcdermottlab.mit.edu/mturk_stimuli/bjmedina/mem_exp_ind-nature_2025/sequences/isi_16/len120/seq068_len120_s15_isi-1p0_0p0_16p0.json","11.04","true","jy752y8crvr","","null","<span style=""font-size: 40px"">+</span>","null","","","","","","","","","",""
"","","","","","audio-button-response","80","412298","0.0-10.0-2.23","https://mcdermottlab.mit.edu/mturk_stimuli/bjmedina/mem_exp_ind-nature_2025/sequences/isi_16/len120/seq068_len120_s15_isi-1p0_0p0_16p0.json","11.04","true","jy752y8crvr","","2680","https://mcdermottlab.mit.edu/mturk_stimuli/bjmedina/mem_exp_ind-nature_2025/mem_stim_7.wav","2","main","","","true","mem_stim_7.wav","false","16","","0","miss"
"","","","","","html-keyboard-response","81","412366","0.0-10.0-1.24","https://mcdermottlab.mit.edu/mturk_stimuli/bjmedina/mem_exp_ind-nature_2025/sequences/isi_16/len120/seq068_len120_s15_isi-1p0_0p0_16p0.json","11.04","true","jy752y8crvr","","null","<span style=""font-size: 40px"">+</span>","null","","","","","","","","","",""
"","","","","","audio-button-response","82","416606","0.0-10.0-2.24","https://mcdermottlab.mit.edu/mturk_stimuli/bjmedina/mem_exp_ind-nature_2025/sequences/isi_16/len120/seq068_len120_s15_isi-1p0_0p0_16p0.json","11.04","true","jy752y8crvr","","2661","https://mcdermottlab.mit.edu/mturk_stimuli/bjmedina/mem_exp_ind-nature_2025/mem_stim_38.wav","0","main","","","false","mem_stim_38.wav","false","-1","","1","correct_rejection"
"","","","","","html-keyboard-response","83","416681","0.0-10.0-1.25","https://mcdermottlab.mit.edu/mturk_stimuli/bjmedina/mem_exp_ind-nature_2025/sequences/isi_16/len120/seq068_len120_s15_isi-1p0_0p0_16p0.json","11.04","true","jy752y8crvr","","null","<span style=""font-size: 40px"">+</span>","null","","","","","","","","","",""
"","","","","","audio-button-response","84","419372","0.0-10.0-2.25","https://mcdermottlab.mit.edu/mturk_stimuli/bjmedina/mem_exp_ind-nature_2025/sequences/isi_16/len120/seq068_len120_s15_isi-1p0_0p0_16p0.json","11.04","true","jy752y8crvr","","2680","https://mcdermottlab.mit.edu/mturk_stimuli/bjmedina/mem_exp_ind-nature_2025/mem_stim_13.wav","0","main","","","true","mem_stim_13.wav","false","16","","0","miss"
"","","","","","html-keyboard-response","85","419451","0.0-10.0-1.26","https://mcdermottlab.mit.edu/mturk_stimuli/bjmedina/mem_exp_ind-nature_2025/sequences/isi_16/len120/seq068_len120_s15_isi-1p0_0p0_16p0.json","11.04","true","jy752y8crvr","","null","<span style=""font-size: 40px"">+</span>","null","","","","","","","","","",""
"","","","","","audio-button-response","86","423687","0.0-10.0-2.26","https://mcdermottlab.mit.edu/mturk_stimuli/bjmedina/mem_exp_ind-nature_2025/sequences/isi_16/len120/seq068_len120_s15_isi-1p0_0p0_16p0.json","11.04","true","jy752y8crvr","","2709","https://mcdermottlab.mit.edu/mturk_stimuli/bjmedina/mem_exp_ind-nature_2025/mem_stim_72.wav","0","main","","","false","mem_stim_72.wav","false","-1","","1","correct_rejection"
"","","","","","html-keyboard-response","87","423760","0.0-10.0-1.27","https://mcdermottlab.mit.edu/mturk_stimuli/bjmedina/mem_exp_ind-nature_2025/sequences/isi_16/len120/seq068_len120_s15_isi-1p0_0p0_16p0.json","11.04","true","jy752y8crvr","","null","<span style=""font-size: 40px"">+</span>","null","","","","","","","","","",""
"","","","","","audio-button-response","88","426479","0.0-10.0-2.27","https://mcdermottlab.mit.edu/mturk_stimuli/bjmedina/mem_exp_ind-nature_2025/sequences/isi_16/len120/seq068_len120_s15_isi-1p0_0p0_16p0.json","11.04","true","jy752y8crvr","","2709","https://mcdermottlab.mit.edu/mturk_stimuli/bjmedina/mem_exp_ind-nature_2025/mem_stim_72.wav","3","main","","","true","mem_stim_72.wav","true","0","","0","miss"
"","","","","","html-keyboard-response","89","426555","0.0-10.0-1.28","https://mcdermottlab.mit.edu/mturk_stimuli/bjmedina/mem_exp_ind-nature_2025/sequences/isi_16/len120/seq068_len120_s15_isi-1p0_0p0_16p0.json","11.04","true","jy752y8crvr","","null","<span style=""font-size: 40px"">+</span>","null","","","","","","","","","",""
"","","","","","audio-button-response","90","429856","0.0-10.0-2.28","https://mcdermottlab.mit.edu/mturk_stimuli/bjmedina/mem_exp_ind-nature_2025/sequences/isi_16/len120/seq068_len120_s15_isi-1p0_0p0_16p0.json","11.04","true","jy752y8crvr","","3261","https://mcdermottlab.mit.edu/mturk_stimuli/bjmedina/mem_exp_ind-nature_2025/mem_stim_4.wav","3","main","","","true","mem_stim_4.wav","false","16","","0","miss"
"","","","","","html-keyboard-response","91","429929","0.0-10.0-1.29","https://mcdermottlab.mit.edu/mturk_stimuli/bjmedina/mem_exp_ind-nature_2025/sequences/isi_16/len120/seq068_len120_s15_isi-1p0_0p0_16p0.json","11.04","true","jy752y8crvr","","null","<span style=""font-size: 40px"">+</span>","null","","","","","","","","","",""
"","","","","","audio-button-response","92","434783","0.0-10.0-2.29","https://mcdermottlab.mit.edu/mturk_stimuli/bjmedina/mem_exp_ind-nature_2025/sequences/isi_16/len120/seq068_len120_s15_isi-1p0_0p0_16p0.json","11.04","true","jy752y8crvr","","3080","https://mcdermottlab.mit.edu/mturk_stimuli/bjmedina/mem_exp_ind-nature_2025/mem_stim_11.wav","1","main","","","false","mem_stim_11.wav","false","-1","","0","false_alarm"
"","","","","","html-keyboard-response","93","434864","0.0-10.0-1.30","https://mcdermottlab.mit.edu/mturk_stimuli/bjmedina/mem_exp_ind-nature_2025/sequences/isi_16/len120/seq068_len120_s15_isi-1p0_0p0_16p0.json","11.04","true","jy752y8crvr","","null","<span style=""font-size: 40px"">+</span>","null","","","","","","","","","",""
"","","","","","audio-button-response","94","437514","0.0-10.0-2.30","https://mcdermottlab.mit.edu/mturk_stimuli/bjmedina/mem_exp_ind-nature_2025/sequences/isi_16/len120/seq068_len120_s15_isi-1p0_0p0_16p0.json","11.04","true","jy752y8crvr","","2651","https://mcdermottlab.mit.edu/mturk_stimuli/bjmedina/mem_exp_ind-nature_2025/mem_stim_6.wav","2","main","","","true","mem_stim_6.wav","false","16","","0","miss"
"","","","","","html-keyboard-response","95","437596","0.0-10.0-1.31","https://mcdermottlab.mit.edu/mturk_stimuli/bjmedina/mem_exp_ind-nature_2025/sequences/isi_16/len120/seq068_len120_s15_isi-1p0_0p0_16p0.json","11.04","true","jy752y8crvr","","null","<span style=""font-size: 40px"">+</span>","null","","","","","","","","","",""
"","","","","","audio-button-response","96","441596","0.0-10.0-2.31","https://mcdermottlab.mit.edu/mturk_stimuli/bjmedina/mem_exp_ind-nature_2025/sequences/isi_16/len120/seq068_len120_s15_isi-1p0_0p0_16p0.json","11.04","true","jy752y8crvr","","2789","https://mcdermottlab.mit.edu/mturk_stimuli/bjmedina/mem_exp_ind-nature_2025/mem_stim_26.wav","0","main","","","false","mem_stim_26.wav","false","-1","","1","correct_rejection"
"","","","","","html-keyboard-response","97","441668","0.0-10.0-1.32","https://mcdermottlab.mit.edu/mturk_stimuli/bjmedina/mem_exp_ind-nature_2025/sequences/isi_16/len120/seq068_len120_s15_isi-1p0_0p0_16p0.json","11.04","true","jy752y8crvr","","null","<span style=""font-size: 40px"">+</span>","null","","","","","","","","","",""
"","","","","","audio-button-response","98","445720","0.0-10.0-2.32","https://mcdermottlab.mit.edu/mturk_stimuli/bjmedina/mem_exp_ind-nature_2025/sequences/isi_16/len120/seq068_len120_s15_isi-1p0_0p0_16p0.json","11.04","true","jy752y8crvr","","2680","https://mcdermottlab.mit.edu/mturk_stimuli/bjmedina/mem_exp_ind-nature_2025/mem_stim_44.wav","0","main","","","false","mem_stim_44.wav","false","-1","","1","correct_rejection"
"","","","","","html-keyboard-response","99","445800","0.0-10.0-1.33","https://mcdermottlab.mit.edu/mturk_stimuli/bjmedina/mem_exp_ind-nature_2025/sequences/isi_16/len120/seq068_len120_s15_isi-1p0_0p0_16p0.json","11.04","true","jy752y8crvr","","null","<span style=""font-size: 40px"">+</span>","null","","","","","","","","","",""
"","","","","","audio-button-response","100","448459","0.0-10.0-2.33","https://mcdermottlab.mit.edu/mturk_stimuli/bjmedina/mem_exp_ind-nature_2025/sequences/isi_16/len120/seq068_len120_s15_isi-1p0_0p0_16p0.json","11.04","true","jy752y8crvr","","2661","https://mcdermottlab.mit.edu/mturk_stimuli/bjmedina/mem_exp_ind-nature_2025/mem_stim_22.wav","3","main","","","true","mem_stim_22.wav","false","16","","0","miss"
"","","","","","html-keyboard-response","101","448534","0.0-10.0-1.34","https://mcdermottlab.mit.edu/mturk_stimuli/bjmedina/mem_exp_ind-nature_2025/sequences/isi_16/len120/seq068_len120_s15_isi-1p0_0p0_16p0.json","11.04","true","jy752y8crvr","","null","<span style=""font-size: 40px"">+</span>","null","","","","","","","","","",""
"","","","","","audio-button-response","102","452692","0.0-10.0-2.34","https://mcdermottlab.mit.edu/mturk_stimuli/bjmedina/mem_exp_ind-nature_2025/sequences/isi_16/len120/seq068_len120_s15_isi-1p0_0p0_16p0.json","11.04","true","jy752y8crvr","","2611","https://mcdermottlab.mit.edu/mturk_stimuli/bjmedina/mem_exp_ind-nature_2025/mem_stim_67.wav","0","main","","","false","mem_stim_67.wav","false","-1","","1","correct_rejection"
"","","","","","html-keyboard-response","103","452767","0.0-10.0-1.35","https://mcdermottlab.mit.edu/mturk_stimuli/bjmedina/mem_exp_ind-nature_2025/sequences/isi_16/len120/seq068_len120_s15_isi-1p0_0p0_16p0.json","11.04","true","jy752y8crvr","","null","<span style=""font-size: 40px"">+</span>","null","","","","","","","","","",""
"","","","","","audio-button-response","104","456521","0.0-10.0-2.35","https://mcdermottlab.mit.edu/mturk_stimuli/bjmedina/mem_exp_ind-nature_2025/sequences/isi_16/len120/seq068_len120_s15_isi-1p0_0p0_16p0.json","11.04","true","jy752y8crvr","","2669","https://mcdermottlab.mit.edu/mturk_stimuli/bjmedina/mem_exp_ind-nature_2025/mem_stim_8.wav","0","main","","","false","mem_stim_8.wav","false","-1","","1","correct_rejection"
"","","","","","html-keyboard-response","105","456601","0.0-10.0-1.36","https://mcdermottlab.mit.edu/mturk_stimuli/bjmedina/mem_exp_ind-nature_2025/sequences/isi_16/len120/seq068_len120_s15_isi-1p0_0p0_16p0.json","11.04","true","jy752y8crvr","","null","<span style=""font-size: 40px"">+</span>","null","","","","","","","","","",""
"","","","","","audio-button-response","106","459144","0.0-10.0-2.36","https://mcdermottlab.mit.edu/mturk_stimuli/bjmedina/mem_exp_ind-nature_2025/sequences/isi_16/len120/seq068_len120_s15_isi-1p0_0p0_16p0.json","11.04","true","jy752y8crvr","","2539","https://mcdermottlab.mit.edu/mturk_stimuli/bjmedina/mem_exp_ind-nature_2025/mem_stim_24.wav","2","main","","","true","mem_stim_24.wav","false","16","","0","miss"
"","","","","","html-keyboard-response","107","459223","0.0-10.0-1.37","https://mcdermottlab.mit.edu/mturk_stimuli/bjmedina/mem_exp_ind-nature_2025/sequences/isi_16/len120/seq068_len120_s15_isi-1p0_0p0_16p0.json","11.04","true","jy752y8crvr","","null","<span style=""font-size: 40px"">+</span>","null","","","","","","","","","",""
"","","","","","audio-button-response","108","463595","0.0-10.0-2.37","https://mcdermottlab.mit.edu/mturk_stimuli/bjmedina/mem_exp_ind-nature_2025/sequences/isi_16/len120/seq068_len120_s15_isi-1p0_0p0_16p0.json","11.04","true","jy752y8crvr","","2429","https://mcdermottlab.mit.edu/mturk_stimuli/bjmedina/mem_exp_ind-nature_2025/mem_stim_16.wav","0","main","","","false","mem_stim_16.wav","false","-1","","1","correct_rejection"
"","","","","","html-keyboard-response","109","463675","0.0-10.0-1.38","https://mcdermottlab.mit.edu/mturk_stimuli/bjmedina/mem_exp_ind-nature_2025/sequences/isi_16/len120/seq068_len120_s15_isi-1p0_0p0_16p0.json","11.04","true","jy752y8crvr","","null","<span style=""font-size: 40px"">+</span>","null","","","","","","","","","",""
"","","","","","audio-button-response","110","467443","0.0-10.0-2.38","https://mcdermottlab.mit.edu/mturk_stimuli/bjmedina/mem_exp_ind-nature_2025/sequences/isi_16/len120/seq068_len120_s15_isi-1p0_0p0_16p0.json","11.04","true","jy752y8crvr","","2661","https://mcdermottlab.mit.edu/mturk_stimuli/bjmedina/mem_exp_ind-nature_2025/mem_stim_30.wav","1","main","","","false","mem_stim_30.wav","false","-1","","0","false_alarm"
"","","","","","html-keyboard-response","111","467530","0.0-10.0-1.39","https://mcdermottlab.mit.edu/mturk_stimuli/bjmedina/mem_exp_ind-nature_2025/sequences/isi_16/len120/seq068_len120_s15_isi-1p0_0p0_16p0.json","11.04","true","jy752y8crvr","","null","<span style=""font-size: 40px"">+</span>","null","","","","","","","","","",""
"","","","","","audio-button-response","112","470179","0.0-10.0-2.39","https://mcdermottlab.mit.edu/mturk_stimuli/bjmedina/mem_exp_ind-nature_2025/sequences/isi_16/len120/seq068_len120_s15_isi-1p0_0p0_16p0.json","11.04","true","jy752y8crvr","","2651","https://mcdermottlab.mit.edu/mturk_stimuli/bjmedina/mem_exp_ind-nature_2025/mem_stim_9.wav","2","main","","","true","mem_stim_9.wav","false","16","","0","miss"
"","","","","","html-keyboard-response","113","470246","0.0-10.0-1.40","https://mcdermottlab.mit.edu/mturk_stimuli/bjmedina/mem_exp_ind-nature_2025/sequences/isi_16/len120/seq068_len120_s15_isi-1p0_0p0_16p0.json","11.04","true","jy752y8crvr","","null","<span style=""font-size: 40px"">+</span>","null","","","","","","","","","",""
"","","","","","audio-button-response","114","474696","0.0-10.0-2.40","https://mcdermottlab.mit.edu/mturk_stimuli/bjmedina/mem_exp_ind-nature_2025/sequences/isi_16/len120/seq068_len120_s15_isi-1p0_0p0_16p0.json","11.04","true","jy752y8crvr","","2632","https://mcdermottlab.mit.edu/mturk_stimuli/bjmedina/mem_exp_ind-nature_2025/mem_stim_77.wav","0","main","","","false","mem_stim_77.wav","false","-1","","1","correct_rejection"
"","","","","","html-keyboard-response","115","474771","0.0-10.0-1.41","https://mcdermottlab.mit.edu/mturk_stimuli/bjmedina/mem_exp_ind-nature_2025/sequences/isi_16/len120/seq068_len120_s15_isi-1p0_0p0_16p0.json","11.04","true","jy752y8crvr","","null","<span style=""font-size: 40px"">+</span>","null","","","","","","","","","",""
"","","","","","audio-button-response","116","477311","0.0-10.0-2.41","https://mcdermottlab.mit.edu/mturk_stimuli/bjmedina/mem_exp_ind-nature_2025/sequences/isi_16/len120/seq068_len120_s15_isi-1p0_0p0_16p0.json","11.04","true","jy752y8crvr","","2528","https://mcdermottlab.mit.edu/mturk_stimuli/bjmedina/mem_exp_ind-nature_2025/mem_stim_77.wav","3","main","","","true","mem_stim_77.wav","true","0","","0","miss"
"","","","","","html-keyboard-response","117","477375","0.0-10.0-1.42","https://mcdermottlab.mit.edu/mturk_stimuli/bjmedina/mem_exp_ind-nature_2025/sequences/isi_16/len120/seq068_len120_s15_isi-1p0_0p0_16p0.json","11.04","true","jy752y8crvr","","null","<span style=""font-size: 40px"">+</span>","null","","","","","","","","","",""
"","","","","","audio-button-response","118","481148","0.0-10.0-2.42","https://mcdermottlab.mit.edu/mturk_stimuli/bjmedina/mem_exp_ind-nature_2025/sequences/isi_16/len120/seq068_len120_s15_isi-1p0_0p0_16p0.json","11.04","true","jy752y8crvr","","2640","https://mcdermottlab.mit.edu/mturk_stimuli/bjmedina/mem_exp_ind-nature_2025/mem_stim_15.wav","0","main","","","false","mem_stim_15.wav","false","-1","","1","correct_rejection"
"","","","","","html-keyboard-response","119","481225","0.0-10.0-1.43","https://mcdermottlab.mit.edu/mturk_stimuli/bjmedina/mem_exp_ind-nature_2025/sequences/isi_16/len120/seq068_len120_s15_isi-1p0_0p0_16p0.json","11.04","true","jy752y8crvr","","null","<span style=""font-size: 40px"">+</span>","null","","","","","","","","","",""
"","","","","","audio-button-response","120","484669","0.0-10.0-2.43","https://mcdermottlab.mit.edu/mturk_stimuli/bjmedina/mem_exp_ind-nature_2025/sequences/isi_16/len120/seq068_len120_s15_isi-1p0_0p0_16p0.json","11.04","true","jy752y8crvr","","2408","https://mcdermottlab.mit.edu/mturk_stimuli/bjmedina/mem_exp_ind-nature_2025/mem_stim_71.wav","1","main","","","false","mem_stim_71.wav","false","-1","","0","false_alarm"
"","","","","","html-keyboard-response","121","484750","0.0-10.0-1.44","https://mcdermottlab.mit.edu/mturk_stimuli/bjmedina/mem_exp_ind-nature_2025/sequences/isi_16/len120/seq068_len120_s15_isi-1p0_0p0_16p0.json","11.04","true","jy752y8crvr","","null","<span style=""font-size: 40px"">+</span>","null","","","","","","","","","",""
"","","","","","audio-button-response","122","486983","0.0-10.0-2.44","https://mcdermottlab.mit.edu/mturk_stimuli/bjmedina/mem_exp_ind-nature_2025/sequences/isi_16/len120/seq068_len120_s15_isi-1p0_0p0_16p0.json","11.04","true","jy752y8crvr","","2240","https://mcdermottlab.mit.edu/mturk_stimuli/bjmedina/mem_exp_ind-nature_2025/mem_stim_71.wav","3","main","","","true","mem_stim_71.wav","true","0","","0","miss"
"","","","","","html-keyboard-response","123","487051","0.0-10.0-1.45","https://mcdermottlab.mit.edu/mturk_stimuli/bjmedina/mem_exp_ind-nature_2025/sequences/isi_16/len120/seq068_len120_s15_isi-1p0_0p0_16p0.json","11.04","true","jy752y8crvr","","null","<span style=""font-size: 40px"">+</span>","null","","","","","","","","","",""
"","","","","","audio-button-response","124","493095","0.0-10.0-2.45","https://mcdermottlab.mit.edu/mturk_stimuli/bjmedina/mem_exp_ind-nature_2025/sequences/isi_16/len120/seq068_len120_s15_isi-1p0_0p0_16p0.json","11.04","true","jy752y8crvr","","4152","https://mcdermottlab.mit.edu/mturk_stimuli/bjmedina/mem_exp_ind-nature_2025/mem_stim_40.wav","0","main","","","false","mem_stim_40.wav","false","-1","","1","correct_rejection"
"","","","","","html-keyboard-response","125","493170","0.0-10.0-1.46","https://mcdermottlab.mit.edu/mturk_stimuli/bjmedina/mem_exp_ind-nature_2025/sequences/isi_16/len120/seq068_len120_s15_isi-1p0_0p0_16p0.json","11.04","true","jy752y8crvr","","null","<span style=""font-size: 40px"">+</span>","null","","","","","","","","","",""
"","","","","","audio-button-response","126","495977","0.0-10.0-2.46","https://mcdermottlab.mit.edu/mturk_stimuli/bjmedina/mem_exp_ind-nature_2025/sequences/isi_16/len120/seq068_len120_s15_isi-1p0_0p0_16p0.json","11.04","true","jy752y8crvr","","2800","https://mcdermottlab.mit.edu/mturk_stimuli/bjmedina/mem_exp_ind-nature_2025/mem_stim_11.wav","2","main","","","true","mem_stim_11.wav","false","16","","0","miss"
"","","","","","html-keyboard-response","127","496065","0.0-10.0-1.47","https://mcdermottlab.mit.edu/mturk_stimuli/bjmedina/mem_exp_ind-nature_2025/sequences/isi_16/len120/seq068_len120_s15_isi-1p0_0p0_16p0.json","11.04","true","jy752y8crvr","","null","<span style=""font-size: 40px"">+</span>","null","","","","","","","","","",""
"","","","","","audio-button-response","128","500573","0.0-10.0-2.47","https://mcdermottlab.mit.edu/mturk_stimuli/bjmedina/mem_exp_ind-nature_2025/sequences/isi_16/len120/seq068_len120_s15_isi-1p0_0p0_16p0.json","11.04","true","jy752y8crvr","","2651","https://mcdermottlab.mit.edu/mturk_stimuli/bjmedina/mem_exp_ind-nature_2025/mem_stim_43.wav","1","main","","","false","mem_stim_43.wav","false","-1","","0","false_alarm"
"","","","","","html-keyboard-response","129","500664","0.0-10.0-1.48","https://mcdermottlab.mit.edu/mturk_stimuli/bjmedina/mem_exp_ind-nature_2025/sequences/isi_16/len120/seq068_len120_s15_isi-1p0_0p0_16p0.json","11.04","true","jy752y8crvr","","null","<span style=""font-size: 40px"">+</span>","null","","","","","","","","","",""
"","","","","","audio-button-response","130","503072","0.0-10.0-2.48","https://mcdermottlab.mit.edu/mturk_stimuli/bjmedina/mem_exp_ind-nature_2025/sequences/isi_16/len120/seq068_len120_s15_isi-1p0_0p0_16p0.json","11.04","true","jy752y8crvr","","2411","https://mcdermottlab.mit.edu/mturk_stimuli/bjmedina/mem_exp_ind-nature_2025/mem_stim_26.wav","0","main","","","true","mem_stim_26.wav","false","16","","0","miss"
"","","","","","html-keyboard-response","131","503157","0.0-10.0-1.49","https://mcdermottlab.mit.edu/mturk_stimuli/bjmedina/mem_exp_ind-nature_2025/sequences/isi_16/len120/seq068_len120_s15_isi-1p0_0p0_16p0.json","11.04","true","jy752y8crvr","","null","<span style=""font-size: 40px"">+</span>","null","","","","","","","","","",""
"","","","","","audio-button-response","132","506700","0.0-10.0-2.49","https://mcdermottlab.mit.edu/mturk_stimuli/bjmedina/mem_exp_ind-nature_2025/sequences/isi_16/len120/seq068_len120_s15_isi-1p0_0p0_16p0.json","11.04","true","jy752y8crvr","","2501","https://mcdermottlab.mit.edu/mturk_stimuli/bjmedina/mem_exp_ind-nature_2025/mem_stim_76.wav","1","main","","","false","mem_stim_76.wav","false","-1","","0","false_alarm"
"","","","","","html-keyboard-response","133","506788","0.0-10.0-1.50","https://mcdermottlab.mit.edu/mturk_stimuli/bjmedina/mem_exp_ind-nature_2025/sequences/isi_16/len120/seq068_len120_s15_isi-1p0_0p0_16p0.json","11.04","true","jy752y8crvr","","null","<span style=""font-size: 40px"">+</span>","null","","","","","","","","","",""
"","","","","","audio-button-response","134","509285","0.0-10.0-2.50","https://mcdermottlab.mit.edu/mturk_stimuli/bjmedina/mem_exp_ind-nature_2025/sequences/isi_16/len120/seq068_len120_s15_isi-1p0_0p0_16p0.json","11.04","true","jy752y8crvr","","2501","https://mcdermottlab.mit.edu/mturk_stimuli/bjmedina/mem_exp_ind-nature_2025/mem_stim_76.wav","3","main","","","true","mem_stim_76.wav","true","0","","0","miss"
"","","","","","html-keyboard-response","135","509360","0.0-10.0-1.51","https://mcdermottlab.mit.edu/mturk_stimuli/bjmedina/mem_exp_ind-nature_2025/sequences/isi_16/len120/seq068_len120_s15_isi-1p0_0p0_16p0.json","11.04","true","jy752y8crvr","","null","<span style=""font-size: 40px"">+</span>","null","","","","","","","","","",""
"","","","","","audio-button-response","136","513383","0.0-10.0-2.51","https://mcdermottlab.mit.edu/mturk_stimuli/bjmedina/mem_exp_ind-nature_2025/sequences/isi_16/len120/seq068_len120_s15_isi-1p0_0p0_16p0.json","11.04","true","jy752y8crvr","","2109","https://mcdermottlab.mit.edu/mturk_stimuli/bjmedina/mem_exp_ind-nature_2025/mem_stim_56.wav","0","main","","","false","mem_stim_56.wav","false","-1","","1","correct_rejection"
"","","","","","html-keyboard-response","137","513481","0.0-10.0-1.52","https://mcdermottlab.mit.edu/mturk_stimuli/bjmedina/mem_exp_ind-nature_2025/sequences/isi_16/len120/seq068_len120_s15_isi-1p0_0p0_16p0.json","11.04","true","jy752y8crvr","","null","<span style=""font-size: 40px"">+</span>","null","","","","","","","","","",""
"","","","","","audio-button-response","138","516370","0.0-10.0-2.52","https://mcdermottlab.mit.edu/mturk_stimuli/bjmedina/mem_exp_ind-nature_2025/sequences/isi_16/len120/seq068_len120_s15_isi-1p0_0p0_16p0.json","11.04","true","jy752y8crvr","","2880","https://mcdermottlab.mit.edu/mturk_stimuli/bjmedina/mem_exp_ind-nature_2025/mem_stim_8.wav","0","main","","","true","mem_stim_8.wav","false","16","","0","miss"
"","","","","","html-keyboard-response","139","516455","0.0-10.0-1.53","https://mcdermottlab.mit.edu/mturk_stimuli/bjmedina/mem_exp_ind-nature_2025/sequences/isi_16/len120/seq068_len120_s15_isi-1p0_0p0_16p0.json","11.04","true","jy752y8crvr","","null","<span style=""font-size: 40px"">+</span>","null","","","","","","","","","",""
"","","","","","audio-button-response","140","519969","0.0-10.0-2.53","https://mcdermottlab.mit.edu/mturk_stimuli/bjmedina/mem_exp_ind-nature_2025/sequences/isi_16/len120/seq068_len120_s15_isi-1p0_0p0_16p0.json","11.04","true","jy752y8crvr","","2221","https://mcdermottlab.mit.edu/mturk_stimuli/bjmedina/mem_exp_ind-nature_2025/mem_stim_66.wav","1","main","","","false","mem_stim_66.wav","false","-1","","0","false_alarm"
"","","","","","html-keyboard-response","141","520075","0.0-10.0-1.54","https://mcdermottlab.mit.edu/mturk_stimuli/bjmedina/mem_exp_ind-nature_2025/sequences/isi_16/len120/seq068_len120_s15_isi-1p0_0p0_16p0.json","11.04","true","jy752y8crvr","","null","<span style=""font-size: 40px"">+</span>","null","","","","","","","","","",""
"","","","","","audio-button-response","142","522469","0.0-10.0-2.54","https://mcdermottlab.mit.edu/mturk_stimuli/bjmedina/mem_exp_ind-nature_2025/sequences/isi_16/len120/seq068_len120_s15_isi-1p0_0p0_16p0.json","11.04","true","jy752y8crvr","","2389","https://mcdermottlab.mit.edu/mturk_stimuli/bjmedina/mem_exp_ind-nature_2025/mem_stim_16.wav","1","main","","","true","mem_stim_16.wav","false","16","","1","hit"
"","","","","","html-keyboard-response","143","522551","0.0-10.0-1.55","https://mcdermottlab.mit.edu/mturk_stimuli/bjmedina/mem_exp_ind-nature_2025/sequences/isi_16/len120/seq068_len120_s15_isi-1p0_0p0_16p0.json","11.04","true","jy752y8crvr","","null","<span style=""font-size: 40px"">+</span>","null","","","","","","","","","",""
"","","","","","audio-button-response","144","527018","0.0-10.0-2.55","https://mcdermottlab.mit.edu/mturk_stimuli/bjmedina/mem_exp_ind-nature_2025/sequences/isi_16/len120/seq068_len120_s15_isi-1p0_0p0_16p0.json","11.04","true","jy752y8crvr","","2632","https://mcdermottlab.mit.edu/mturk_stimuli/bjmedina/mem_exp_ind-nature_2025/mem_stim_58.wav","0","main","","","false","mem_stim_58.wav","false","-1","","1","correct_rejection"
"","","","","","html-keyboard-response","145","527110","0.0-10.0-1.56","https://mcdermottlab.mit.edu/mturk_stimuli/bjmedina/mem_exp_ind-nature_2025/sequences/isi_16/len120/seq068_len120_s15_isi-1p0_0p0_16p0.json","11.04","true","jy752y8crvr","","null","<span style=""font-size: 40px"">+</span>","null","","","","","","","","","",""
"","","","","","audio-button-response","146","531601","0.0-10.0-2.56","https://mcdermottlab.mit.edu/mturk_stimuli/bjmedina/mem_exp_ind-nature_2025/sequences/isi_16/len120/seq068_len120_s15_isi-1p0_0p0_16p0.json","11.04","true","jy752y8crvr","","3040","https://mcdermottlab.mit.edu/mturk_stimuli/bjmedina/mem_exp_ind-nature_2025/mem_stim_54.wav","0","main","","","false","mem_stim_54.wav","false","-1","","1","correct_rejection"
"","","","","","html-keyboard-response","147","531693","0.0-10.0-1.57","https://mcdermottlab.mit.edu/mturk_stimuli/bjmedina/mem_exp_ind-nature_2025/sequences/isi_16/len120/seq068_len120_s15_isi-1p0_0p0_16p0.json","11.04","true","jy752y8crvr","","null","<span style=""font-size: 40px"">+</span>","null","","","","","","","","","",""
"","","","","","audio-button-response","148","536013","0.0-10.0-2.57","https://mcdermottlab.mit.edu/mturk_stimuli/bjmedina/mem_exp_ind-nature_2025/sequences/isi_16/len120/seq068_len120_s15_isi-1p0_0p0_16p0.json","11.04","true","jy752y8crvr","","3021","https://mcdermottlab.mit.edu/mturk_stimuli/bjmedina/mem_exp_ind-nature_2025/mem_stim_17.wav","2","main","","","false","mem_stim_17.wav","false","-1","","1","correct_rejection"
"","","","","","html-keyboard-response","149","536084","0.0-10.0-1.58","https://mcdermottlab.mit.edu/mturk_stimuli/bjmedina/mem_exp_ind-nature_2025/sequences/isi_16/len120/seq068_len120_s15_isi-1p0_0p0_16p0.json","11.04","true","jy752y8crvr","","null","<span style=""font-size: 40px"">+</span>","null","","","","","","","","","",""
"","","","","","audio-button-response","150","539192","0.0-10.0-2.58","https://mcdermottlab.mit.edu/mturk_stimuli/bjmedina/mem_exp_ind-nature_2025/sequences/isi_16/len120/seq068_len120_s15_isi-1p0_0p0_16p0.json","11.04","true","jy752y8crvr","","2109","https://mcdermottlab.mit.edu/mturk_stimuli/bjmedina/mem_exp_ind-nature_2025/mem_stim_52.wav","0","main","","","false","mem_stim_52.wav","false","-1","","1","correct_rejection"
"","","","","","html-keyboard-response","151","539282","0.0-10.0-1.59","https://mcdermottlab.mit.edu/mturk_stimuli/bjmedina/mem_exp_ind-nature_2025/sequences/isi_16/len120/seq068_len120_s15_isi-1p0_0p0_16p0.json","11.04","true","jy752y8crvr","","null","<span style=""font-size: 40px"">+</span>","null","","","","","","","","","",""
"","","","","","audio-button-response","152","542036","0.0-10.0-2.59","https://mcdermottlab.mit.edu/mturk_stimuli/bjmedina/mem_exp_ind-nature_2025/sequences/isi_16/len120/seq068_len120_s15_isi-1p0_0p0_16p0.json","11.04","true","jy752y8crvr","","2749","https://mcdermottlab.mit.edu/mturk_stimuli/bjmedina/mem_exp_ind-nature_2025/mem_stim_15.wav","3","main","","","true","mem_stim_15.wav","false","16","","0","miss"
"","","","","","html-keyboard-response","153","542104","0.0-10.0-1.60","https://mcdermottlab.mit.edu/mturk_stimuli/bjmedina/mem_exp_ind-nature_2025/sequences/isi_16/len120/seq068_len120_s15_isi-1p0_0p0_16p0.json","11.04","true","jy752y8crvr","","null","<span style=""font-size: 40px"">+</span>","null","","","","","","","","","",""
"","","","","","audio-button-response","154","546459","0.0-10.0-2.60","https://mcdermottlab.mit.edu/mturk_stimuli/bjmedina/mem_exp_ind-nature_2025/sequences/isi_16/len120/seq068_len120_s15_isi-1p0_0p0_16p0.json","11.04","true","jy752y8crvr","","2760","https://mcdermottlab.mit.edu/mturk_stimuli/bjmedina/mem_exp_ind-nature_2025/mem_stim_73.wav","0","main","","","false","mem_stim_73.wav","false","-1","","1","correct_rejection"
"","","","","","html-keyboard-response","155","546537","0.0-10.0-1.61","https://mcdermottlab.mit.edu/mturk_stimuli/bjmedina/mem_exp_ind-nature_2025/sequences/isi_16/len120/seq068_len120_s15_isi-1p0_0p0_16p0.json","11.04","true","jy752y8crvr","","null","<span style=""font-size: 40px"">+</span>","null","","","","","","","","","",""
"","","","","","audio-button-response","156","549191","0.0-10.0-2.61","https://mcdermottlab.mit.edu/mturk_stimuli/bjmedina/mem_exp_ind-nature_2025/sequences/isi_16/len120/seq068_len120_s15_isi-1p0_0p0_16p0.json","11.04","true","jy752y8crvr","","2648","https://mcdermottlab.mit.edu/mturk_stimuli/bjmedina/mem_exp_ind-nature_2025/mem_stim_73.wav","3","main","","","true","mem_stim_73.wav","true","0","","0","miss"
"","","","","","html-keyboard-response","157","549275","0.0-10.0-1.62","https://mcdermottlab.mit.edu/mturk_stimuli/bjmedina/mem_exp_ind-nature_2025/sequences/isi_16/len120/seq068_len120_s15_isi-1p0_0p0_16p0.json","11.04","true","jy752y8crvr","","null","<span style=""font-size: 40px"">+</span>","null","","","","","","","","","",""
"","","","","","audio-button-response","158","553268","0.0-10.0-2.62","https://mcdermottlab.mit.edu/mturk_stimuli/bjmedina/mem_exp_ind-nature_2025/sequences/isi_16/len120/seq068_len120_s15_isi-1p0_0p0_16p0.json","11.04","true","jy752y8crvr","","2699","https://mcdermottlab.mit.edu/mturk_stimuli/bjmedina/mem_exp_ind-nature_2025/mem_stim_21.wav","2","main","","","false","mem_stim_21.wav","false","-1","","1","correct_rejection"
"","","","","","html-keyboard-response","159","553361","0.0-10.0-1.63","https://mcdermottlab.mit.edu/mturk_stimuli/bjmedina/mem_exp_ind-nature_2025/sequences/isi_16/len120/seq068_len120_s15_isi-1p0_0p0_16p0.json","11.04","true","jy752y8crvr","","null","<span style=""font-size: 40px"">+</span>","null","","","","","","","","","",""
"","","","","","audio-button-response","160","557146","0.0-10.0-2.63","https://mcdermottlab.mit.edu/mturk_stimuli/bjmedina/mem_exp_ind-nature_2025/sequences/isi_16/len120/seq068_len120_s15_isi-1p0_0p0_16p0.json","11.04","true","jy752y8crvr","","2419","https://mcdermottlab.mit.edu/mturk_stimuli/bjmedina/mem_exp_ind-nature_2025/mem_stim_36.wav","1","main","","","false","mem_stim_36.wav","false","-1","","0","false_alarm"
"","","","","","html-keyboard-response","161","557229","0.0-10.0-1.64","https://mcdermottlab.mit.edu/mturk_stimuli/bjmedina/mem_exp_ind-nature_2025/sequences/isi_16/len120/seq068_len120_s15_isi-1p0_0p0_16p0.json","11.04","true","jy752y8crvr","","null","<span style=""font-size: 40px"">+</span>","null","","","","","","","","","",""
"","","","","","audio-button-response","162","560663","0.0-10.0-2.64","https://mcdermottlab.mit.edu/mturk_stimuli/bjmedina/mem_exp_ind-nature_2025/sequences/isi_16/len120/seq068_len120_s15_isi-1p0_0p0_16p0.json","11.04","true","jy752y8crvr","","2408","https://mcdermottlab.mit.edu/mturk_stimuli/bjmedina/mem_exp_ind-nature_2025/mem_stim_3.wav","2","main","","","false","mem_stim_3.wav","false","-1","","1","correct_rejection"
"","","","","","html-keyboard-response","163","560761","0.0-10.0-1.65","https://mcdermottlab.mit.edu/mturk_stimuli/bjmedina/mem_exp_ind-nature_2025/sequences/isi_16/len120/seq068_len120_s15_isi-1p0_0p0_16p0.json","11.04","true","jy752y8crvr","","null","<span style=""font-size: 40px"">+</span>","null","","","","","","","","","",""
"","","","","","audio-button-response","164","564217","0.0-10.0-2.65","https://mcdermottlab.mit.edu/mturk_stimuli/bjmedina/mem_exp_ind-nature_2025/sequences/isi_16/len120/seq068_len120_s15_isi-1p0_0p0_16p0.json","11.04","true","jy752y8crvr","","2512","https://mcdermottlab.mit.edu/mturk_stimuli/bjmedina/mem_exp_ind-nature_2025/mem_stim_68.wav","0","main","","","false","mem_stim_68.wav","false","-1","","1","correct_rejection"
"","","","","","html-keyboard-response","165","564298","0.0-10.0-1.66","https://mcdermottlab.mit.edu/mturk_stimuli/bjmedina/mem_exp_ind-nature_2025/sequences/isi_16/len120/seq068_len120_s15_isi-1p0_0p0_16p0.json","11.04","true","jy752y8crvr","","null","<span style=""font-size: 40px"">+</span>","null","","","","","","","","","",""
"","","","","","audio-button-response","166","570048","0.0-10.0-2.66","https://mcdermottlab.mit.edu/mturk_stimuli/bjmedina/mem_exp_ind-nature_2025/sequences/isi_16/len120/seq068_len120_s15_isi-1p0_0p0_16p0.json","11.04","true","jy752y8crvr","","4411","https://mcdermottlab.mit.edu/mturk_stimuli/bjmedina/mem_exp_ind-nature_2025/mem_stim_18.wav","2","main","","","false","mem_stim_18.wav","false","-1","","1","correct_rejection"
"","","","","","html-keyboard-response","167","570142","0.0-10.0-1.67","https://mcdermottlab.mit.edu/mturk_stimuli/bjmedina/mem_exp_ind-nature_2025/sequences/isi_16/len120/seq068_len120_s15_isi-1p0_0p0_16p0.json","11.04","true","jy752y8crvr","","null","<span style=""font-size: 40px"">+</span>","null","","","","","","","","","",""
"","","","","","audio-button-response","168","575173","0.0-10.0-2.67","https://mcdermottlab.mit.edu/mturk_stimuli/bjmedina/mem_exp_ind-nature_2025/sequences/isi_16/len120/seq068_len120_s15_isi-1p0_0p0_16p0.json","11.04","true","jy752y8crvr","","2160","https://mcdermottlab.mit.edu/mturk_stimuli/bjmedina/mem_exp_ind-nature_2025/mem_stim_51.wav","0","main","","","false","mem_stim_51.wav","false","-1","","1","correct_rejection"
"","","","","","html-keyboard-response","169","575260","0.0-10.0-1.68","https://mcdermottlab.mit.edu/mturk_stimuli/bjmedina/mem_exp_ind-nature_2025/sequences/isi_16/len120/seq068_len120_s15_isi-1p0_0p0_16p0.json","11.04","true","jy752y8crvr","","null","<span style=""font-size: 40px"">+</span>","null","","","","","","","","","",""
"","","","","","audio-button-response","170","578568","0.0-10.0-2.68","https://mcdermottlab.mit.edu/mturk_stimuli/bjmedina/mem_exp_ind-nature_2025/sequences/isi_16/len120/seq068_len120_s15_isi-1p0_0p0_16p0.json","11.04","true","jy752y8crvr","","2280","https://mcdermottlab.mit.edu/mturk_stimuli/bjmedina/mem_exp_ind-nature_2025/mem_stim_32.wav","0","main","","","false","mem_stim_32.wav","false","-1","","1","correct_rejection"
"","","","","","html-keyboard-response","171","578655","0.0-10.0-1.69","https://mcdermottlab.mit.edu/mturk_stimuli/bjmedina/mem_exp_ind-nature_2025/sequences/isi_16/len120/seq068_len120_s15_isi-1p0_0p0_16p0.json","11.04","true","jy752y8crvr","","null","<span style=""font-size: 40px"">+</span>","null","","","","","","","","","",""
"","","","","","audio-button-response","172","583188","0.0-10.0-2.69","https://mcdermottlab.mit.edu/mturk_stimuli/bjmedina/mem_exp_ind-nature_2025/sequences/isi_16/len120/seq068_len120_s15_isi-1p0_0p0_16p0.json","11.04","true","jy752y8crvr","","3189","https://mcdermottlab.mit.edu/mturk_stimuli/bjmedina/mem_exp_ind-nature_2025/mem_stim_75.wav","2","main","","","false","mem_stim_75.wav","false","-1","","1","correct_rejection"
"","","","","","html-keyboard-response","173","583277","0.0-10.0-1.70","https://mcdermottlab.mit.edu/mturk_stimuli/bjmedina/mem_exp_ind-nature_2025/sequences/isi_16/len120/seq068_len120_s15_isi-1p0_0p0_16p0.json","11.04","true","jy752y8crvr","","null","<span style=""font-size: 40px"">+</span>","null","","","","","","","","","",""
"","","","","","audio-button-response","174","585533","0.0-10.0-2.70","https://mcdermottlab.mit.edu/mturk_stimuli/bjmedina/mem_exp_ind-nature_2025/sequences/isi_16/len120/seq068_len120_s15_isi-1p0_0p0_16p0.json","11.04","true","jy752y8crvr","","2261","https://mcdermottlab.mit.edu/mturk_stimuli/bjmedina/mem_exp_ind-nature_2025/mem_stim_75.wav","3","main","","","true","mem_stim_75.wav","true","0","","0","miss"
"","","","","","html-keyboard-response","175","585621","0.0-10.0-1.71","https://mcdermottlab.mit.edu/mturk_stimuli/bjmedina/mem_exp_ind-nature_2025/sequences/isi_16/len120/seq068_len120_s15_isi-1p0_0p0_16p0.json","11.04","true","jy752y8crvr","","null","<span style=""font-size: 40px"">+</span>","null","","","","","","","","","",""
"","","","","","audio-button-response","176","590376","0.0-10.0-2.71","https://mcdermottlab.mit.edu/mturk_stimuli/bjmedina/mem_exp_ind-nature_2025/sequences/isi_16/len120/seq068_len120_s15_isi-1p0_0p0_16p0.json","11.04","true","jy752y8crvr","","2712","https://mcdermottlab.mit.edu/mturk_stimuli/bjmedina/mem_exp_ind-nature_2025/mem_stim_19.wav","0","main","","","false","mem_stim_19.wav","false","-1","","1","correct_rejection"
"","","","","","html-keyboard-response","177","590475","0.0-10.0-1.72","https://mcdermottlab.mit.edu/mturk_stimuli/bjmedina/mem_exp_ind-nature_2025/sequences/isi_16/len120/seq068_len120_s15_isi-1p0_0p0_16p0.json","11.04","true","jy752y8crvr","","null","<span style=""font-size: 40px"">+</span>","null","","","","","","","","","",""
"","","","","","audio-button-response","178","594079","0.0-10.0-2.72","https://mcdermottlab.mit.edu/mturk_stimuli/bjmedina/mem_exp_ind-nature_2025/sequences/isi_16/len120/seq068_len120_s15_isi-1p0_0p0_16p0.json","11.04","true","jy752y8crvr","","2419","https://mcdermottlab.mit.edu/mturk_stimuli/bjmedina/mem_exp_ind-nature_2025/mem_stim_53.wav","2","main","","","false","mem_stim_53.wav","false","-1","","1","correct_rejection"
"","","","","","html-keyboard-response","179","594160","0.0-10.0-1.73","https://mcdermottlab.mit.edu/mturk_stimuli/bjmedina/mem_exp_ind-nature_2025/sequences/isi_16/len120/seq068_len120_s15_isi-1p0_0p0_16p0.json","11.04","true","jy752y8crvr","","null","<span style=""font-size: 40px"">+</span>","null","","","","","","","","","",""
"","","","","","audio-button-response","180","597745","0.0-10.0-2.73","https://mcdermottlab.mit.edu/mturk_stimuli/bjmedina/mem_exp_ind-nature_2025/sequences/isi_16/len120/seq068_len120_s15_isi-1p0_0p0_16p0.json","11.04","true","jy752y8crvr","","2680","https://mcdermottlab.mit.edu/mturk_stimuli/bjmedina/mem_exp_ind-nature_2025/mem_stim_35.wav","0","main","","","false","mem_stim_35.wav","false","-1","","1","correct_rejection"
"","","","","","html-keyboard-response","181","597842","0.0-10.0-1.74","https://mcdermottlab.mit.edu/mturk_stimuli/bjmedina/mem_exp_ind-nature_2025/sequences/isi_16/len120/seq068_len120_s15_isi-1p0_0p0_16p0.json","11.04","true","jy752y8crvr","","null","<span style=""font-size: 40px"">+</span>","null","","","","","","","","","",""
"","","","","","audio-button-response","182","600928","0.0-10.0-2.74","https://mcdermottlab.mit.edu/mturk_stimuli/bjmedina/mem_exp_ind-nature_2025/sequences/isi_16/len120/seq068_len120_s15_isi-1p0_0p0_16p0.json","11.04","true","jy752y8crvr","","3080","https://mcdermottlab.mit.edu/mturk_stimuli/bjmedina/mem_exp_ind-nature_2025/mem_stim_17.wav","2","main","","","true","mem_stim_17.wav","false","16","","0","miss"
"","","","","","html-keyboard-response","183","601011","0.0-10.0-1.75","https://mcdermottlab.mit.edu/mturk_stimuli/bjmedina/mem_exp_ind-nature_2025/sequences/isi_16/len120/seq068_len120_s15_isi-1p0_0p0_16p0.json","11.04","true","jy752y8crvr","","null","<span style=""font-size: 40px"">+</span>","null","","","","","","","","","",""
"","","","","","audio-button-response","184","605133","0.0-10.0-2.75","https://mcdermottlab.mit.edu/mturk_stimuli/bjmedina/mem_exp_ind-nature_2025/sequences/isi_16/len120/seq068_len120_s15_isi-1p0_0p0_16p0.json","11.04","true","jy752y8crvr","","2381","https://mcdermottlab.mit.edu/mturk_stimuli/bjmedina/mem_exp_ind-nature_2025/mem_stim_62.wav","3","main","","","false","mem_stim_62.wav","false","-1","","1","correct_rejection"
"","","","","","html-keyboard-response","185","605229","0.0-10.0-1.76","https://mcdermottlab.mit.edu/mturk_stimuli/bjmedina/mem_exp_ind-nature_2025/sequences/isi_16/len120/seq068_len120_s15_isi-1p0_0p0_16p0.json","11.04","true","jy752y8crvr","","null","<span style=""font-size: 40px"">+</span>","null","","","","","","","","","",""
"","","","","","audio-button-response","186","610062","0.0-10.0-2.76","https://mcdermottlab.mit.edu/mturk_stimuli/bjmedina/mem_exp_ind-nature_2025/sequences/isi_16/len120/seq068_len120_s15_isi-1p0_0p0_16p0.json","11.04","true","jy752y8crvr","","3512","https://mcdermottlab.mit.edu/mturk_stimuli/bjmedina/mem_exp_ind-nature_2025/mem_stim_79.wav","1","main","","","false","mem_stim_79.wav","false","-1","","0","false_alarm"
"","","","","","html-keyboard-response","187","610160","0.0-10.0-1.77","https://mcdermottlab.mit.edu/mturk_stimuli/bjmedina/mem_exp_ind-nature_2025/sequences/isi_16/len120/seq068_len120_s15_isi-1p0_0p0_16p0.json","11.04","true","jy752y8crvr","","null","<span style=""font-size: 40px"">+</span>","null","","","","","","","","","",""
"","","","","","audio-button-response","188","612812","0.0-10.0-2.77","https://mcdermottlab.mit.edu/mturk_stimuli/bjmedina/mem_exp_ind-nature_2025/sequences/isi_16/len120/seq068_len120_s15_isi-1p0_0p0_16p0.json","11.04","true","jy752y8crvr","","2651","https://mcdermottlab.mit.edu/mturk_stimuli/bjmedina/mem_exp_ind-nature_2025/mem_stim_79.wav","3","main","","","true","mem_stim_79.wav","true","0","","0","miss"
"","","","","","html-keyboard-response","189","612875","0.0-10.0-1.78","https://mcdermottlab.mit.edu/mturk_stimuli/bjmedina/mem_exp_ind-nature_2025/sequences/isi_16/len120/seq068_len120_s15_isi-1p0_0p0_16p0.json","11.04","true","jy752y8crvr","","null","<span style=""font-size: 40px"">+</span>","null","","","","","","","","","",""
"","","","","","audio-button-response","190","617414","0.0-10.0-2.78","https://mcdermottlab.mit.edu/mturk_stimuli/bjmedina/mem_exp_ind-nature_2025/sequences/isi_16/len120/seq068_len120_s15_isi-1p0_0p0_16p0.json","11.04","true","jy752y8crvr","","2621","https://mcdermottlab.mit.edu/mturk_stimuli/bjmedina/mem_exp_ind-nature_2025/mem_stim_65.wav","0","main","","","false","mem_stim_65.wav","false","-1","","1","correct_rejection"
"","","","","","html-keyboard-response","191","617483","0.0-10.0-1.79","https://mcdermottlab.mit.edu/mturk_stimuli/bjmedina/mem_exp_ind-nature_2025/sequences/isi_16/len120/seq068_len120_s15_isi-1p0_0p0_16p0.json","11.04","true","jy752y8crvr","","null","<span style=""font-size: 40px"">+</span>","null","","","","","","","","","",""
"","","","","","audio-button-response","192","619613","0.0-10.0-2.79","https://mcdermottlab.mit.edu/mturk_stimuli/bjmedina/mem_exp_ind-nature_2025/sequences/isi_16/len120/seq068_len120_s15_isi-1p0_0p0_16p0.json","11.04","true","jy752y8crvr","","2131","https://mcdermottlab.mit.edu/mturk_stimuli/bjmedina/mem_exp_ind-nature_2025/mem_stim_21.wav","2","main","","","true","mem_stim_21.wav","false","16","","0","miss"
"","","","","","html-keyboard-response","193","619712","0.0-10.0-1.80","https://mcdermottlab.mit.edu/mturk_stimuli/bjmedina/mem_exp_ind-nature_2025/sequences/isi_16/len120/seq068_len120_s15_isi-1p0_0p0_16p0.json","11.04","true","jy752y8crvr","","null","<span style=""font-size: 40px"">+</span>","null","","","","","","","","","",""
"","","","","","audio-button-response","194","622985","0.0-10.0-2.80","https://mcdermottlab.mit.edu/mturk_stimuli/bjmedina/mem_exp_ind-nature_2025/sequences/isi_16/len120/seq068_len120_s15_isi-1p0_0p0_16p0.json","11.04","true","jy752y8crvr","","2240","https://mcdermottlab.mit.edu/mturk_stimuli/bjmedina/mem_exp_ind-nature_2025/mem_stim_20.wav","1","main","","","false","mem_stim_20.wav","false","-1","","0","false_alarm"
"","","","","","html-keyboard-response","195","623086","0.0-10.0-1.81","https://mcdermottlab.mit.edu/mturk_stimuli/bjmedina/mem_exp_ind-nature_2025/sequences/isi_16/len120/seq068_len120_s15_isi-1p0_0p0_16p0.json","11.04","true","jy752y8crvr","","null","<span style=""font-size: 40px"">+</span>","null","","","","","","","","","",""
"","","","","","audio-button-response","196","625358","0.0-10.0-2.81","https://mcdermottlab.mit.edu/mturk_stimuli/bjmedina/mem_exp_ind-nature_2025/sequences/isi_16/len120/seq068_len120_s15_isi-1p0_0p0_16p0.json","11.04","true","jy752y8crvr","","2269","https://mcdermottlab.mit.edu/mturk_stimuli/bjmedina/mem_exp_ind-nature_2025/mem_stim_3.wav","2","main","","","true","mem_stim_3.wav","false","16","","0","miss"
"","","","","","html-keyboard-response","197","625446","0.0-10.0-1.82","https://mcdermottlab.mit.edu/mturk_stimuli/bjmedina/mem_exp_ind-nature_2025/sequences/isi_16/len120/seq068_len120_s15_isi-1p0_0p0_16p0.json","11.04","true","jy752y8crvr","","null","<span style=""font-size: 40px"">+</span>","null","","","","","","","","","",""
"","","","","","audio-button-response","198","629607","0.0-10.0-2.82","https://mcdermottlab.mit.edu/mturk_stimuli/bjmedina/mem_exp_ind-nature_2025/sequences/isi_16/len120/seq068_len120_s15_isi-1p0_0p0_16p0.json","11.04","true","jy752y8crvr","","2240","https://mcdermottlab.mit.edu/mturk_stimuli/bjmedina/mem_exp_ind-nature_2025/mem_stim_41.wav","0","main","","","false","mem_stim_41.wav","false","-1","","1","correct_rejection"
"","","","","","html-keyboard-response","199","629705","0.0-10.0-1.83","https://mcdermottlab.mit.edu/mturk_stimuli/bjmedina/mem_exp_ind-nature_2025/sequences/isi_16/len120/seq068_len120_s15_isi-1p0_0p0_16p0.json","11.04","true","jy752y8crvr","","null","<span style=""font-size: 40px"">+</span>","null","","","","","","","","","",""
"","","","","","audio-button-response","200","632502","0.0-10.0-2.83","https://mcdermottlab.mit.edu/mturk_stimuli/bjmedina/mem_exp_ind-nature_2025/sequences/isi_16/len120/seq068_len120_s15_isi-1p0_0p0_16p0.json","11.04","true","jy752y8crvr","","2800","https://mcdermottlab.mit.edu/mturk_stimuli/bjmedina/mem_exp_ind-nature_2025/mem_stim_18.wav","3","main","","","true","mem_stim_18.wav","false","16","","0","miss"
"","","","","","html-keyboard-response","201","632604","0.0-10.0-1.84","https://mcdermottlab.mit.edu/mturk_stimuli/bjmedina/mem_exp_ind-nature_2025/sequences/isi_16/len120/seq068_len120_s15_isi-1p0_0p0_16p0.json","11.04","true","jy752y8crvr","","null","<span style=""font-size: 40px"">+</span>","null","","","","","","","","","",""
"","","","","","audio-button-response","202","636918","0.0-10.0-2.84","https://mcdermottlab.mit.edu/mturk_stimuli/bjmedina/mem_exp_ind-nature_2025/sequences/isi_16/len120/seq068_len120_s15_isi-1p0_0p0_16p0.json","11.04","true","jy752y8crvr","","2840","https://mcdermottlab.mit.edu/mturk_stimuli/bjmedina/mem_exp_ind-nature_2025/mem_stim_33.wav","2","main","","","false","mem_stim_33.wav","false","-1","","1","correct_rejection"
"","","","","","html-keyboard-response","203","637008","0.0-10.0-1.85","https://mcdermottlab.mit.edu/mturk_stimuli/bjmedina/mem_exp_ind-nature_2025/sequences/isi_16/len120/seq068_len120_s15_isi-1p0_0p0_16p0.json","11.04","true","jy752y8crvr","","null","<span style=""font-size: 40px"">+</span>","null","","","","","","","","","",""
"","","","","","audio-button-response","204","641143","0.0-10.0-2.85","https://mcdermottlab.mit.edu/mturk_stimuli/bjmedina/mem_exp_ind-nature_2025/sequences/isi_16/len120/seq068_len120_s15_isi-1p0_0p0_16p0.json","11.04","true","jy752y8crvr","","2731","https://mcdermottlab.mit.edu/mturk_stimuli/bjmedina/mem_exp_ind-nature_2025/mem_stim_34.wav","0","main","","","false","mem_stim_34.wav","false","-1","","1","correct_rejection"
"","","","","","html-keyboard-response","205","641226","0.0-10.0-1.86","https://mcdermottlab.mit.edu/mturk_stimuli/bjmedina/mem_exp_ind-nature_2025/sequences/isi_16/len120/seq068_len120_s15_isi-1p0_0p0_16p0.json","11.04","true","jy752y8crvr","","null","<span style=""font-size: 40px"">+</span>","null","","","","","","","","","",""
"","","","","","audio-button-response","206","645252","0.0-10.0-2.86","https://mcdermottlab.mit.edu/mturk_stimuli/bjmedina/mem_exp_ind-nature_2025/sequences/isi_16/len120/seq068_len120_s15_isi-1p0_0p0_16p0.json","11.04","true","jy752y8crvr","","2829","https://mcdermottlab.mit.edu/mturk_stimuli/bjmedina/mem_exp_ind-nature_2025/mem_stim_74.wav","1","main","","","false","mem_stim_74.wav","false","-1","","0","false_alarm"
"","","","","","html-keyboard-response","207","645322","0.0-10.0-1.87","https://mcdermottlab.mit.edu/mturk_stimuli/bjmedina/mem_exp_ind-nature_2025/sequences/isi_16/len120/seq068_len120_s15_isi-1p0_0p0_16p0.json","11.04","true","jy752y8crvr","","null","<span style=""font-size: 40px"">+</span>","null","","","","","","","","","",""
"","","","","","audio-button-response","208","647474","0.0-10.0-2.87","https://mcdermottlab.mit.edu/mturk_stimuli/bjmedina/mem_exp_ind-nature_2025/sequences/isi_16/len120/seq068_len120_s15_isi-1p0_0p0_16p0.json","11.04","true","jy752y8crvr","","2149","https://mcdermottlab.mit.edu/mturk_stimuli/bjmedina/mem_exp_ind-nature_2025/mem_stim_74.wav","3","main","","","true","mem_stim_74.wav","true","0","","0","miss"
"","","","","","html-keyboard-response","209","647569","0.0-10.0-1.88","https://mcdermottlab.mit.edu/mturk_stimuli/bjmedina/mem_exp_ind-nature_2025/sequences/isi_16/len120/seq068_len120_s15_isi-1p0_0p0_16p0.json","11.04","true","jy752y8crvr","","null","<span style=""font-size: 40px"">+</span>","null","","","","","","","","","",""
"","","","","","audio-button-response","210","650497","0.0-10.0-2.88","https://mcdermottlab.mit.edu/mturk_stimuli/bjmedina/mem_exp_ind-nature_2025/sequences/isi_16/len120/seq068_len120_s15_isi-1p0_0p0_16p0.json","11.04","true","jy752y8crvr","","2931","https://mcdermottlab.mit.edu/mturk_stimuli/bjmedina/mem_exp_ind-nature_2025/mem_stim_19.wav","1","main","","","true","mem_stim_19.wav","false","16","","1","hit"
"","","","","","html-keyboard-response","211","650611","0.0-10.0-1.89","https://mcdermottlab.mit.edu/mturk_stimuli/bjmedina/mem_exp_ind-nature_2025/sequences/isi_16/len120/seq068_len120_s15_isi-1p0_0p0_16p0.json","11.04","true","jy752y8crvr","","null","<span style=""font-size: 40px"">+</span>","null","","","","","","","","","",""
"","","","","","audio-button-response","212","655779","0.0-10.0-2.89","https://mcdermottlab.mit.edu/mturk_stimuli/bjmedina/mem_exp_ind-nature_2025/sequences/isi_16/len120/seq068_len120_s15_isi-1p0_0p0_16p0.json","11.04","true","jy752y8crvr","","2920","https://mcdermottlab.mit.edu/mturk_stimuli/bjmedina/mem_exp_ind-nature_2025/mem_stim_5.wav","2","main","","","false","mem_stim_5.wav","false","-1","","1","correct_rejection"
"","","","","","html-keyboard-response","213","655849","0.0-10.0-1.90","https://mcdermottlab.mit.edu/mturk_stimuli/bjmedina/mem_exp_ind-nature_2025/sequences/isi_16/len120/seq068_len120_s15_isi-1p0_0p0_16p0.json","11.04","true","jy752y8crvr","","null","<span style=""font-size: 40px"">+</span>","null","","","","","","","","","",""
"","","","","","audio-button-response","214","660518","0.0-10.0-2.90","https://mcdermottlab.mit.edu/mturk_stimuli/bjmedina/mem_exp_ind-nature_2025/sequences/isi_16/len120/seq068_len120_s15_isi-1p0_0p0_16p0.json","11.04","true","jy752y8crvr","","3640","https://mcdermottlab.mit.edu/mturk_stimuli/bjmedina/mem_exp_ind-nature_2025/mem_stim_29.wav","0","main","","","false","mem_stim_29.wav","false","-1","","1","correct_rejection"
"","","","","","html-keyboard-response","215","660616","0.0-10.0-1.91","https://mcdermottlab.mit.edu/mturk_stimuli/bjmedina/mem_exp_ind-nature_2025/sequences/isi_16/len120/seq068_len120_s15_isi-1p0_0p0_16p0.json","11.04","true","jy752y8crvr","","null","<span style=""font-size: 40px"">+</span>","null","","","","","","","","","",""
"","","","","","audio-button-response","216","666312","0.0-10.0-2.91","https://mcdermottlab.mit.edu/mturk_stimuli/bjmedina/mem_exp_ind-nature_2025/sequences/isi_16/len120/seq068_len120_s15_isi-1p0_0p0_16p0.json","11.04","true","jy752y8crvr","","4501","https://mcdermottlab.mit.edu/mturk_stimuli/bjmedina/mem_exp_ind-nature_2025/mem_stim_31.wav","1","main","","","false","mem_stim_31.wav","false","-1","","0","false_alarm"
"","","","","","html-keyboard-response","217","666421","0.0-10.0-1.92","https://mcdermottlab.mit.edu/mturk_stimuli/bjmedina/mem_exp_ind-nature_2025/sequences/isi_16/len120/seq068_len120_s15_isi-1p0_0p0_16p0.json","11.04","true","jy752y8crvr","","null","<span style=""font-size: 40px"">+</span>","null","","","","","","","","","",""
"","","","","","audio-button-response","218","671827","0.0-10.0-2.92","https://mcdermottlab.mit.edu/mturk_stimuli/bjmedina/mem_exp_ind-nature_2025/sequences/isi_16/len120/seq068_len120_s15_isi-1p0_0p0_16p0.json","11.04","true","jy752y8crvr","","3051","https://mcdermottlab.mit.edu/mturk_stimuli/bjmedina/mem_exp_ind-nature_2025/mem_stim_23.wav","1","main","","","false","mem_stim_23.wav","false","-1","","0","false_alarm"
"","","","","","html-keyboard-response","219","671922","0.0-10.0-1.93","https://mcdermottlab.mit.edu/mturk_stimuli/bjmedina/mem_exp_ind-nature_2025/sequences/isi_16/len120/seq068_len120_s15_isi-1p0_0p0_16p0.json","11.04","true","jy752y8crvr","","null","<span style=""font-size: 40px"">+</span>","null","","","","","","","","","",""
"","","","","","audio-button-response","220","675574","0.0-10.0-2.93","https://mcdermottlab.mit.edu/mturk_stimuli/bjmedina/mem_exp_ind-nature_2025/sequences/isi_16/len120/seq068_len120_s15_isi-1p0_0p0_16p0.json","11.04","true","jy752y8crvr","","2381","https://mcdermottlab.mit.edu/mturk_stimuli/bjmedina/mem_exp_ind-nature_2025/mem_stim_12.wav","2","main","","","false","mem_stim_12.wav","false","-1","","1","correct_rejection"
"","","","","","html-keyboard-response","221","675656","0.0-10.0-1.94","https://mcdermottlab.mit.edu/mturk_stimuli/bjmedina/mem_exp_ind-nature_2025/sequences/isi_16/len120/seq068_len120_s15_isi-1p0_0p0_16p0.json","11.04","true","jy752y8crvr","","null","<span style=""font-size: 40px"">+</span>","null","","","","","","","","","",""
"","","","","","audio-button-response","222","680642","0.0-10.0-2.94","https://mcdermottlab.mit.edu/mturk_stimuli/bjmedina/mem_exp_ind-nature_2025/sequences/isi_16/len120/seq068_len120_s15_isi-1p0_0p0_16p0.json","11.04","true","jy752y8crvr","","3629","https://mcdermottlab.mit.edu/mturk_stimuli/bjmedina/mem_exp_ind-nature_2025/mem_stim_0.wav","0","main","","","false","mem_stim_0.wav","false","-1","","1","correct_rejection"
"","","","","","html-keyboard-response","223","680742","0.0-10.0-1.95","https://mcdermottlab.mit.edu/mturk_stimuli/bjmedina/mem_exp_ind-nature_2025/sequences/isi_16/len120/seq068_len120_s15_isi-1p0_0p0_16p0.json","11.04","true","jy752y8crvr","","null","<span style=""font-size: 40px"">+</span>","null","","","","","","","","","",""
"","","","","","audio-button-response","224","685109","0.0-10.0-2.95","https://mcdermottlab.mit.edu/mturk_stimuli/bjmedina/mem_exp_ind-nature_2025/sequences/isi_16/len120/seq068_len120_s15_isi-1p0_0p0_16p0.json","11.04","true","jy752y8crvr","","2901","https://mcdermottlab.mit.edu/mturk_stimuli/bjmedina/mem_exp_ind-nature_2025/mem_stim_37.wav","2","main","","","false","mem_stim_37.wav","false","-1","","1","correct_rejection"
"","","","","","html-keyboard-response","225","685203","0.0-10.0-1.96","https://mcdermottlab.mit.edu/mturk_stimuli/bjmedina/mem_exp_ind-nature_2025/sequences/isi_16/len120/seq068_len120_s15_isi-1p0_0p0_16p0.json","11.04","true","jy752y8crvr","","null","<span style=""font-size: 40px"">+</span>","null","","","","","","","","","",""
"","","","","","audio-button-response","226","690000","0.0-10.0-2.96","https://mcdermottlab.mit.edu/mturk_stimuli/bjmedina/mem_exp_ind-nature_2025/sequences/isi_16/len120/seq068_len120_s15_isi-1p0_0p0_16p0.json","11.04","true","jy752y8crvr","","3560","https://mcdermottlab.mit.edu/mturk_stimuli/bjmedina/mem_exp_ind-nature_2025/mem_stim_10.wav","3","main","","","false","mem_stim_10.wav","false","-1","","1","correct_rejection"
"","","","","","html-keyboard-response","227","690092","0.0-10.0-1.97","https://mcdermottlab.mit.edu/mturk_stimuli/bjmedina/mem_exp_ind-nature_2025/sequences/isi_16/len120/seq068_len120_s15_isi-1p0_0p0_16p0.json","11.04","true","jy752y8crvr","","null","<span style=""font-size: 40px"">+</span>","null","","","","","","","","","",""
"","","","","","audio-button-response","228","692743","0.0-10.0-2.97","https://mcdermottlab.mit.edu/mturk_stimuli/bjmedina/mem_exp_ind-nature_2025/sequences/isi_16/len120/seq068_len120_s15_isi-1p0_0p0_16p0.json","11.04","true","jy752y8crvr","","2651","https://mcdermottlab.mit.edu/mturk_stimuli/bjmedina/mem_exp_ind-nature_2025/mem_stim_20.wav","3","main","","","true","mem_stim_20.wav","false","16","","0","miss"
"","","","","","html-keyboard-response","229","692850","0.0-10.0-1.98","https://mcdermottlab.mit.edu/mturk_stimuli/bjmedina/mem_exp_ind-nature_2025/sequences/isi_16/len120/seq068_len120_s15_isi-1p0_0p0_16p0.json","11.04","true","jy752y8crvr","","null","<span style=""font-size: 40px"">+</span>","null","","","","","","","","","",""
"","","","","","audio-button-response","230","698913","0.0-10.0-2.98","https://mcdermottlab.mit.edu/mturk_stimuli/bjmedina/mem_exp_ind-nature_2025/sequences/isi_16/len120/seq068_len120_s15_isi-1p0_0p0_16p0.json","11.04","true","jy752y8crvr","","3891","https://mcdermottlab.mit.edu/mturk_stimuli/bjmedina/mem_exp_ind-nature_2025/mem_stim_47.wav","0","main","","","false","mem_stim_47.wav","false","-1","","1","correct_rejection"
"","","","","","html-keyboard-response","231","698999","0.0-10.0-1.99","https://mcdermottlab.mit.edu/mturk_stimuli/bjmedina/mem_exp_ind-nature_2025/sequences/isi_16/len120/seq068_len120_s15_isi-1p0_0p0_16p0.json","11.04","true","jy752y8crvr","","null","<span style=""font-size: 40px"">+</span>","null","","","","","","","","","",""
"","","","","","audio-button-response","232","704654","0.0-10.0-2.99","https://mcdermottlab.mit.edu/mturk_stimuli/bjmedina/mem_exp_ind-nature_2025/sequences/isi_16/len120/seq068_len120_s15_isi-1p0_0p0_16p0.json","11.04","true","jy752y8crvr","","2651","https://mcdermottlab.mit.edu/mturk_stimuli/bjmedina/mem_exp_ind-nature_2025/mem_stim_25.wav","0","main","","","false","mem_stim_25.wav","false","-1","","1","correct_rejection"
"","","","","","html-keyboard-response","233","704753","0.0-10.0-1.100","https://mcdermottlab.mit.edu/mturk_stimuli/bjmedina/mem_exp_ind-nature_2025/sequences/isi_16/len120/seq068_len120_s15_isi-1p0_0p0_16p0.json","11.04","true","jy752y8crvr","","null","<span style=""font-size: 40px"">+</span>","null","","","","","","","","","",""
"","","","","","audio-button-response","234","708606","0.0-10.0-2.100","https://mcdermottlab.mit.edu/mturk_stimuli/bjmedina/mem_exp_ind-nature_2025/sequences/isi_16/len120/seq068_len120_s15_isi-1p0_0p0_16p0.json","11.04","true","jy752y8crvr","","2659","https://mcdermottlab.mit.edu/mturk_stimuli/bjmedina/mem_exp_ind-nature_2025/mem_stim_55.wav","2","main","","","false","mem_stim_55.wav","false","-1","","1","correct_rejection"
"","","","","","html-keyboard-response","235","708718","0.0-10.0-1.101","https://mcdermottlab.mit.edu/mturk_stimuli/bjmedina/mem_exp_ind-nature_2025/sequences/isi_16/len120/seq068_len120_s15_isi-1p0_0p0_16p0.json","11.04","true","jy752y8crvr","","null","<span style=""font-size: 40px"">+</span>","null","","","","","","","","","",""
"","","","","","audio-button-response","236","712256","0.0-10.0-2.101","https://mcdermottlab.mit.edu/mturk_stimuli/bjmedina/mem_exp_ind-nature_2025/sequences/isi_16/len120/seq068_len120_s15_isi-1p0_0p0_16p0.json","11.04","true","jy752y8crvr","","2120","https://mcdermottlab.mit.edu/mturk_stimuli/bjmedina/mem_exp_ind-nature_2025/mem_stim_28.wav","0","main","","","false","mem_stim_28.wav","false","-1","","1","correct_rejection"
"","","","","","html-keyboard-response","237","712366","0.0-10.0-1.102","https://mcdermottlab.mit.edu/mturk_stimuli/bjmedina/mem_exp_ind-nature_2025/sequences/isi_16/len120/seq068_len120_s15_isi-1p0_0p0_16p0.json","11.04","true","jy752y8crvr","","null","<span style=""font-size: 40px"">+</span>","null","","","","","","","","","",""
"","","","","","audio-button-response","238","716275","0.0-10.0-2.102","https://mcdermottlab.mit.edu/mturk_stimuli/bjmedina/mem_exp_ind-nature_2025/sequences/isi_16/len120/seq068_len120_s15_isi-1p0_0p0_16p0.json","11.04","true","jy752y8crvr","","2592","https://mcdermottlab.mit.edu/mturk_stimuli/bjmedina/mem_exp_ind-nature_2025/mem_stim_14.wav","0","main","","","false","mem_stim_14.wav","false","-1","","1","correct_rejection"
"","","","","","html-keyboard-response","239","716374","0.0-10.0-1.103","https://mcdermottlab.mit.edu/mturk_stimuli/bjmedina/mem_exp_ind-nature_2025/sequences/isi_16/len120/seq068_len120_s15_isi-1p0_0p0_16p0.json","11.04","true","jy752y8crvr","","null","<span style=""font-size: 40px"">+</span>","null","","","","","","","","","",""
"","","","","","audio-button-response","240","722457","0.0-10.0-2.103","https://mcdermottlab.mit.edu/mturk_stimuli/bjmedina/mem_exp_ind-nature_2025/sequences/isi_16/len120/seq068_len120_s15_isi-1p0_0p0_16p0.json","11.04","true","jy752y8crvr","","3640","https://mcdermottlab.mit.edu/mturk_stimuli/bjmedina/mem_exp_ind-nature_2025/mem_stim_70.wav","2","main","","","false","mem_stim_70.wav","false","-1","","1","correct_rejection"
"","","","","","html-keyboard-response","241","722559","0.0-10.0-1.104","https://mcdermottlab.mit.edu/mturk_stimuli/bjmedina/mem_exp_ind-nature_2025/sequences/isi_16/len120/seq068_len120_s15_isi-1p0_0p0_16p0.json","11.04","true","jy752y8crvr","","null","<span style=""font-size: 40px"">+</span>","null","","","","","","","","","",""
"","","","","","audio-button-response","242","725228","0.0-10.0-2.104","https://mcdermottlab.mit.edu/mturk_stimuli/bjmedina/mem_exp_ind-nature_2025/sequences/isi_16/len120/seq068_len120_s15_isi-1p0_0p0_16p0.json","11.04","true","jy752y8crvr","","2672","https://mcdermottlab.mit.edu/mturk_stimuli/bjmedina/mem_exp_ind-nature_2025/mem_stim_70.wav","3","main","","","true","mem_stim_70.wav","true","0","","0","miss"
"","","","","","html-keyboard-response","243","725325","0.0-10.0-1.105","https://mcdermottlab.mit.edu/mturk_stimuli/bjmedina/mem_exp_ind-nature_2025/sequences/isi_16/len120/seq068_len120_s15_isi-1p0_0p0_16p0.json","11.04","true","jy752y8crvr","","null","<span style=""font-size: 40px"">+</span>","null","","","","","","","","","",""
"","","","","","audio-button-response","244","730702","0.0-10.0-2.105","https://mcdermottlab.mit.edu/mturk_stimuli/bjmedina/mem_exp_ind-nature_2025/sequences/isi_16/len120/seq068_len120_s15_isi-1p0_0p0_16p0.json","11.04","true","jy752y8crvr","","2800","https://mcdermottlab.mit.edu/mturk_stimuli/bjmedina/mem_exp_ind-nature_2025/mem_stim_45.wav","0","main","","","false","mem_stim_45.wav","false","-1","","1","correct_rejection"
"","","","","","html-keyboard-response","245","730771","0.0-10.0-1.106","https://mcdermottlab.mit.edu/mturk_stimuli/bjmedina/mem_exp_ind-nature_2025/sequences/isi_16/len120/seq068_len120_s15_isi-1p0_0p0_16p0.json","11.04","true","jy752y8crvr","","null","<span style=""font-size: 40px"">+</span>","null","","","","","","","","","",""
"","","","","","audio-button-response","246","733864","0.0-10.0-2.106","https://mcdermottlab.mit.edu/mturk_stimuli/bjmedina/mem_exp_ind-nature_2025/sequences/isi_16/len120/seq068_len120_s15_isi-1p0_0p0_16p0.json","11.04","true","jy752y8crvr","","3091","https://mcdermottlab.mit.edu/mturk_stimuli/bjmedina/mem_exp_ind-nature_2025/mem_stim_5.wav","1","main","","","true","mem_stim_5.wav","false","16","","1","hit"
"","","","","","html-keyboard-response","247","733971","0.0-10.0-1.107","https://mcdermottlab.mit.edu/mturk_stimuli/bjmedina/mem_exp_ind-nature_2025/sequences/isi_16/len120/seq068_len120_s15_isi-1p0_0p0_16p0.json","11.04","true","jy752y8crvr","","null","<span style=""font-size: 40px"">+</span>","null","","","","","","","","","",""
"","","","","","audio-button-response","248","736486","0.0-10.0-2.107","https://mcdermottlab.mit.edu/mturk_stimuli/bjmedina/mem_exp_ind-nature_2025/sequences/isi_16/len120/seq068_len120_s15_isi-1p0_0p0_16p0.json","11.04","true","jy752y8crvr","","2509","https://mcdermottlab.mit.edu/mturk_stimuli/bjmedina/mem_exp_ind-nature_2025/mem_stim_29.wav","0","main","","","true","mem_stim_29.wav","false","16","","0","miss"
"","","","","","html-keyboard-response","249","736594","0.0-10.0-1.108","https://mcdermottlab.mit.edu/mturk_stimuli/bjmedina/mem_exp_ind-nature_2025/sequences/isi_16/len120/seq068_len120_s15_isi-1p0_0p0_16p0.json","11.04","true","jy752y8crvr","","null","<span style=""font-size: 40px"">+</span>","null","","","","","","","","","",""
"","","","","","audio-button-response","250","740538","0.0-10.0-2.108","https://mcdermottlab.mit.edu/mturk_stimuli/bjmedina/mem_exp_ind-nature_2025/sequences/isi_16/len120/seq068_len120_s15_isi-1p0_0p0_16p0.json","11.04","true","jy752y8crvr","","2589","https://mcdermottlab.mit.edu/mturk_stimuli/bjmedina/mem_exp_ind-nature_2025/mem_stim_49.wav","0","main","","","false","mem_stim_49.wav","false","-1","","1","correct_rejection"
"","","","","","html-keyboard-response","251","740648","0.0-10.0-1.109","https://mcdermottlab.mit.edu/mturk_stimuli/bjmedina/mem_exp_ind-nature_2025/sequences/isi_16/len120/seq068_len120_s15_isi-1p0_0p0_16p0.json","11.04","true","jy752y8crvr","","null","<span style=""font-size: 40px"">+</span>","null","","","","","","","","","",""
"","","","","","audio-button-response","252","743552","0.0-10.0-2.109","https://mcdermottlab.mit.edu/mturk_stimuli/bjmedina/mem_exp_ind-nature_2025/sequences/isi_16/len120/seq068_len120_s15_isi-1p0_0p0_16p0.json","11.04","true","jy752y8crvr","","2909","https://mcdermottlab.mit.edu/mturk_stimuli/bjmedina/mem_exp_ind-nature_2025/mem_stim_23.wav","1","main","","","true","mem_stim_23.wav","false","16","","1","hit"
"","","","","","html-keyboard-response","253","743652","0.0-10.0-1.110","https://mcdermottlab.mit.edu/mturk_stimuli/bjmedina/mem_exp_ind-nature_2025/sequences/isi_16/len120/seq068_len120_s15_isi-1p0_0p0_16p0.json","11.04","true","jy752y8crvr","","null","<span style=""font-size: 40px"">+</span>","null","","","","","","","","","",""
"","","","","","audio-button-response","254","747087","0.0-10.0-2.110","https://mcdermottlab.mit.edu/mturk_stimuli/bjmedina/mem_exp_ind-nature_2025/sequences/isi_16/len120/seq068_len120_s15_isi-1p0_0p0_16p0.json","11.04","true","jy752y8crvr","","3429","https://mcdermottlab.mit.edu/mturk_stimuli/bjmedina/mem_exp_ind-nature_2025/mem_stim_12.wav","2","main","","","true","mem_stim_12.wav","false","16","","0","miss"
"","","","","","html-keyboard-response","255","747193","0.0-10.0-1.111","https://mcdermottlab.mit.edu/mturk_stimuli/bjmedina/mem_exp_ind-nature_2025/sequences/isi_16/len120/seq068_len120_s15_isi-1p0_0p0_16p0.json","11.04","true","jy752y8crvr","","null","<span style=""font-size: 40px"">+</span>","null","","","","","","","","","",""
"","","","","","audio-button-response","256","750115","0.0-10.0-2.111","https://mcdermottlab.mit.edu/mturk_stimuli/bjmedina/mem_exp_ind-nature_2025/sequences/isi_16/len120/seq068_len120_s15_isi-1p0_0p0_16p0.json","11.04","true","jy752y8crvr","","2920","https://mcdermottlab.mit.edu/mturk_stimuli/bjmedina/mem_exp_ind-nature_2025/mem_stim_0.wav","3","main","","","true","mem_stim_0.wav","false","16","","0","miss"
"","","","","","html-keyboard-response","257","750185","0.0-10.0-1.112","https://mcdermottlab.mit.edu/mturk_stimuli/bjmedina/mem_exp_ind-nature_2025/sequences/isi_16/len120/seq068_len120_s15_isi-1p0_0p0_16p0.json","11.04","true","jy752y8crvr","","null","<span style=""font-size: 40px"">+</span>","null","","","","","","","","","",""
"","","","","","audio-button-response","258","754903","0.0-10.0-2.112","https://mcdermottlab.mit.edu/mturk_stimuli/bjmedina/mem_exp_ind-nature_2025/sequences/isi_16/len120/seq068_len120_s15_isi-1p0_0p0_16p0.json","11.04","true","jy752y8crvr","","2741","https://mcdermottlab.mit.edu/mturk_stimuli/bjmedina/mem_exp_ind-nature_2025/mem_stim_61.wav","0","main","","","false","mem_stim_61.wav","false","-1","","1","correct_rejection"
"","","","","","html-keyboard-response","259","755020","0.0-10.0-1.113","https://mcdermottlab.mit.edu/mturk_stimuli/bjmedina/mem_exp_ind-nature_2025/sequences/isi_16/len120/seq068_len120_s15_isi-1p0_0p0_16p0.json","11.04","true","jy752y8crvr","","null","<span style=""font-size: 40px"">+</span>","null","","","","","","","","","",""
"","","","","","audio-button-response","260","758174","0.0-10.0-2.113","https://mcdermottlab.mit.edu/mturk_stimuli/bjmedina/mem_exp_ind-nature_2025/sequences/isi_16/len120/seq068_len120_s15_isi-1p0_0p0_16p0.json","11.04","true","jy752y8crvr","","3160","https://mcdermottlab.mit.edu/mturk_stimuli/bjmedina/mem_exp_ind-nature_2025/mem_stim_10.wav","3","main","","","true","mem_stim_10.wav","false","16","","0","miss"
"","","","","","html-keyboard-response","261","758270","0.0-10.0-1.114","https://mcdermottlab.mit.edu/mturk_stimuli/bjmedina/mem_exp_ind-nature_2025/sequences/isi_16/len120/seq068_len120_s15_isi-1p0_0p0_16p0.json","11.04","true","jy752y8crvr","","null","<span style=""font-size: 40px"">+</span>","null","","","","","","","","","",""
"","","","","","audio-button-response","262","762209","0.0-10.0-2.114","https://mcdermottlab.mit.edu/mturk_stimuli/bjmedina/mem_exp_ind-nature_2025/sequences/isi_16/len120/seq068_len120_s15_isi-1p0_0p0_16p0.json","11.04","true","jy752y8crvr","","3171","https://mcdermottlab.mit.edu/mturk_stimuli/bjmedina/mem_exp_ind-nature_2025/mem_stim_59.wav","0","main","","","false","mem_stim_59.wav","false","-1","","1","correct_rejection"
"","","","","","html-keyboard-response","263","762307","0.0-10.0-1.115","https://mcdermottlab.mit.edu/mturk_stimuli/bjmedina/mem_exp_ind-nature_2025/sequences/isi_16/len120/seq068_len120_s15_isi-1p0_0p0_16p0.json","11.04","true","jy752y8crvr","","null","<span style=""font-size: 40px"">+</span>","null","","","","","","","","","",""
"","","","","","audio-button-response","264","767492","0.0-10.0-2.115","https://mcdermottlab.mit.edu/mturk_stimuli/bjmedina/mem_exp_ind-nature_2025/sequences/isi_16/len120/seq068_len120_s15_isi-1p0_0p0_16p0.json","11.04","true","jy752y8crvr","","4080","https://mcdermottlab.mit.edu/mturk_stimuli/bjmedina/mem_exp_ind-nature_2025/mem_stim_63.wav","1","main","","","false","mem_stim_63.wav","false","-1","","0","false_alarm"
