"success","timeout","failed_images","failed_audio","failed_video","trial_type","trial_index","time_elapsed","internal_node_id","sequence_file","pay","passed_hc","completion_code","view_history","rt","stimulus","response","stim_type","hc_answer","correct_hc","repeat","yt_id","catch","isi","type","is_correct","response_type"
"true","false","[]","[]","[]","preload","0","272","0.0-0.0","https://mcdermottlab.mit.edu/mturk_stimuli/bjmedina/nhs-region-n_80/sequences/isi_16/len120/seq056_len120_s70_isi-1p0_0p0_16p0.json","10.55","true","4xrzcmuo5za","","","","","","","","","","","","","",""
"","","","","","instructions","1","11015","0.0-1.0","https://mcdermottlab.mit.edu/mturk_stimuli/bjmedina/nhs-region-n_80/sequences/isi_16/len120/seq056_len120_s70_isi-1p0_0p0_16p0.json","10.55","true","4xrzcmuo5za","[{""page_index"":0,""viewing_time"":10742}]","10743","","","","","","","","","","","",""
"","","","","","instructions","2","18303","0.0-2.0","https://mcdermottlab.mit.edu/mturk_stimuli/bjmedina/nhs-region-n_80/sequences/isi_16/len120/seq056_len120_s70_isi-1p0_0p0_16p0.json","10.55","true","4xrzcmuo5za","[{""page_index"":0,""viewing_time"":7285}]","7286","","","","","","","","","","","",""
"","","","","","audio-button-response","3","37855","0.0-3.0-0.0","https://mcdermottlab.mit.edu/mturk_stimuli/bjmedina/nhs-region-n_80/sequences/isi_16/len120/seq056_len120_s70_isi-1p0_0p0_16p0.json","10.55","true","4xrzcmuo5za","","19181","https://mcdermottlab.mit.edu/bjmedina/experiments/mem_exp_v01/assets/noise_calib_stim.wav","0","","","","","","","","","",""
"","","","","","audio-button-response","4","43927","0.0-3.1-0.1","https://mcdermottlab.mit.edu/mturk_stimuli/bjmedina/nhs-region-n_80/sequences/isi_16/len120/seq056_len120_s70_isi-1p0_0p0_16p0.json","10.55","true","4xrzcmuo5za","","6069","https://mcdermottlab.mit.edu/bjmedina/experiments/mem_exp_v01/assets/noise_calib_stim.wav","0","","","","","","","","","",""
"","","","","","audio-button-response","5","46927","0.0-3.2-0.2","https://mcdermottlab.mit.edu/mturk_stimuli/bjmedina/nhs-region-n_80/sequences/isi_16/len120/seq056_len120_s70_isi-1p0_0p0_16p0.json","10.55","true","4xrzcmuo5za","","3000","https://mcdermottlab.mit.edu/bjmedina/experiments/mem_exp_v01/assets/noise_calib_stim.wav","1","","","","","","","","","",""
"","","","","","instructions","6","60743","0.0-4.0","https://mcdermottlab.mit.edu/mturk_stimuli/bjmedina/nhs-region-n_80/sequences/isi_16/len120/seq056_len120_s70_isi-1p0_0p0_16p0.json","10.55","true","4xrzcmuo5za","[{""page_index"":0,""viewing_time"":13813}]","13813","","","","","","","","","","","",""
"","","","","","audio-button-response","7","67495","0.0-5.0-0.0","https://mcdermottlab.mit.edu/mturk_stimuli/bjmedina/nhs-region-n_80/sequences/isi_16/len120/seq056_len120_s70_isi-1p0_0p0_16p0.json","10.55","true","4xrzcmuo5za","","5611","https://mcdermottlab.mit.edu/bjmedina/experiments/mem_exp_v01/assets/antiphase_HC_IOS.wav","2","hc","3","1","","","","","","",""
"","","","","","audio-button-response","8","76695","0.0-5.0-0.1","https://mcdermottlab.mit.edu/mturk_stimuli/bjmedina/nhs-region-n_80/sequences/isi_16/len120/seq056_len120_s70_isi-1p0_0p0_16p0.json","10.55","true","4xrzcmuo5za","","4120","https://mcdermottlab.mit.edu/bjmedina/experiments/mem_exp_v01/assets/antiphase_HC_OSI.wav","1","hc","2","1","","","","","","",""
"","","","","","audio-button-response","9","82335","0.0-5.0-0.2","https://mcdermottlab.mit.edu/mturk_stimuli/bjmedina/nhs-region-n_80/sequences/isi_16/len120/seq056_len120_s70_isi-1p0_0p0_16p0.json","10.55","true","4xrzcmuo5za","","3960","https://mcdermottlab.mit.edu/bjmedina/experiments/mem_exp_v01/assets/antiphase_HC_ISO.wav","1","hc","2","1","","","","","","",""
"","","","","","audio-button-response","10","87800","0.0-5.0-0.3","https://mcdermottlab.mit.edu/mturk_stimuli/bjmedina/nhs-region-n_80/sequences/isi_16/len120/seq056_len120_s70_isi-1p0_0p0_16p0.json","10.55","true","4xrzcmuo5za","","4269","https://mcdermottlab.mit.edu/bjmedina/experiments/mem_exp_v01/assets/antiphase_HC_OIS.wav","2","hc","3","1","","","","","","",""
"","","","","","audio-button-response","11","93975","0.0-5.0-0.4","https://mcdermottlab.mit.edu/mturk_stimuli/bjmedina/nhs-region-n_80/sequences/isi_16/len120/seq056_len120_s70_isi-1p0_0p0_16p0.json","10.55","true","4xrzcmuo5za","","4291","https://mcdermottlab.mit.edu/bjmedina/experiments/mem_exp_v01/assets/antiphase_HC_SOI.wav","0","hc","1","1","","","","","","",""
"","","","","","audio-button-response","12","98839","0.0-5.0-0.5","https://mcdermottlab.mit.edu/mturk_stimuli/bjmedina/nhs-region-n_80/sequences/isi_16/len120/seq056_len120_s70_isi-1p0_0p0_16p0.json","10.55","true","4xrzcmuo5za","","4179","https://mcdermottlab.mit.edu/bjmedina/experiments/mem_exp_v01/assets/antiphase_HC_SIO.wav","0","hc","1","1","","","","","","",""
"","","","","","html-keyboard-response","13","101220","0.0-6.0","https://mcdermottlab.mit.edu/mturk_stimuli/bjmedina/nhs-region-n_80/sequences/isi_16/len120/seq056_len120_s70_isi-1p0_0p0_16p0.json","10.55","true","4xrzcmuo5za","","2381","<h1>You have finished the LOUDNESS task!</h1> <p>Press space to continue</p>"," ","","","","","","","","","",""
"","","","","","instructions","14","173199","0.0-7.0","https://mcdermottlab.mit.edu/mturk_stimuli/bjmedina/nhs-region-n_80/sequences/isi_16/len120/seq056_len120_s70_isi-1p0_0p0_16p0.json","10.55","true","4xrzcmuo5za","[{""page_index"":0,""viewing_time"":6411},{""page_index"":1,""viewing_time"":12086},{""page_index"":2,""viewing_time"":48688},{""page_index"":3,""viewing_time"":4791}]","71978","","","","","","","","","","","",""
"","","","","","html-keyboard-response","15","173254","0.0-8.0-0.0","https://mcdermottlab.mit.edu/mturk_stimuli/bjmedina/nhs-region-n_80/sequences/isi_16/len120/seq056_len120_s70_isi-1p0_0p0_16p0.json","10.55","true","4xrzcmuo5za","","null","<span style=""font-size: 40px"">+</span>","null","fixation","","","","","","","","",""
"","","","","","audio-button-response","16","212407","0.0-8.0-1.0","https://mcdermottlab.mit.edu/mturk_stimuli/bjmedina/nhs-region-n_80/sequences/isi_16/len120/seq056_len120_s70_isi-1p0_0p0_16p0.json","10.55","true","4xrzcmuo5za","","37859","https://mcdermottlab.mit.edu/mturk_stimuli/bjmedina/mem_exp_v05/mem_stim_1023_f32.wav","0","demo","","","0","","","","","",""
"","","","","","html-keyboard-response","17","212464","0.0-8.0-0.1","https://mcdermottlab.mit.edu/mturk_stimuli/bjmedina/nhs-region-n_80/sequences/isi_16/len120/seq056_len120_s70_isi-1p0_0p0_16p0.json","10.55","true","4xrzcmuo5za","","null","<span style=""font-size: 40px"">+</span>","null","fixation","","","","","","","","",""
"","","","","","audio-button-response","18","241585","0.0-8.0-1.1","https://mcdermottlab.mit.edu/mturk_stimuli/bjmedina/nhs-region-n_80/sequences/isi_16/len120/seq056_len120_s70_isi-1p0_0p0_16p0.json","10.55","true","4xrzcmuo5za","","27541","https://mcdermottlab.mit.edu/mturk_stimuli/bjmedina/mem_exp_v05/mem_stim_1022_f32.wav","0","demo","","","0","","","","","",""
"","","","","","html-keyboard-response","19","241637","0.0-8.0-0.2","https://mcdermottlab.mit.edu/mturk_stimuli/bjmedina/nhs-region-n_80/sequences/isi_16/len120/seq056_len120_s70_isi-1p0_0p0_16p0.json","10.55","true","4xrzcmuo5za","","null","<span style=""font-size: 40px"">+</span>","null","fixation","","","","","","","","",""
"","","","","","audio-button-response","20","247999","0.0-8.0-1.2","https://mcdermottlab.mit.edu/mturk_stimuli/bjmedina/nhs-region-n_80/sequences/isi_16/len120/seq056_len120_s70_isi-1p0_0p0_16p0.json","10.55","true","4xrzcmuo5za","","6371","https://mcdermottlab.mit.edu/mturk_stimuli/bjmedina/mem_exp_v05/mem_stim_1022_f32.wav","2","demo","","","1","","","","","",""
"","","","","","html-keyboard-response","21","248060","0.0-8.0-0.3","https://mcdermottlab.mit.edu/mturk_stimuli/bjmedina/nhs-region-n_80/sequences/isi_16/len120/seq056_len120_s70_isi-1p0_0p0_16p0.json","10.55","true","4xrzcmuo5za","","null","<span style=""font-size: 40px"">+</span>","null","fixation","","","","","","","","",""
"","","","","","audio-button-response","22","252335","0.0-8.0-1.3","https://mcdermottlab.mit.edu/mturk_stimuli/bjmedina/nhs-region-n_80/sequences/isi_16/len120/seq056_len120_s70_isi-1p0_0p0_16p0.json","10.55","true","4xrzcmuo5za","","2501","https://mcdermottlab.mit.edu/mturk_stimuli/bjmedina/mem_exp_v05/mem_stim_1021_f32.wav","2","demo","","","0","","","","","",""
"","","","","","html-keyboard-response","23","252392","0.0-8.0-0.4","https://mcdermottlab.mit.edu/mturk_stimuli/bjmedina/nhs-region-n_80/sequences/isi_16/len120/seq056_len120_s70_isi-1p0_0p0_16p0.json","10.55","true","4xrzcmuo5za","","null","<span style=""font-size: 40px"">+</span>","null","fixation","","","","","","","","",""
"","","","","","audio-button-response","24","256783","0.0-8.0-1.4","https://mcdermottlab.mit.edu/mturk_stimuli/bjmedina/nhs-region-n_80/sequences/isi_16/len120/seq056_len120_s70_isi-1p0_0p0_16p0.json","10.55","true","4xrzcmuo5za","","4392","https://mcdermottlab.mit.edu/mturk_stimuli/bjmedina/mem_exp_v05/mem_stim_1023_f32.wav","0","demo","","","1","","","","","",""
"","","","","","html-keyboard-response","25","256835","0.0-8.0-0.5","https://mcdermottlab.mit.edu/mturk_stimuli/bjmedina/nhs-region-n_80/sequences/isi_16/len120/seq056_len120_s70_isi-1p0_0p0_16p0.json","10.55","true","4xrzcmuo5za","","null","<span style=""font-size: 40px"">+</span>","null","fixation","","","","","","","","",""
"","","","","","audio-button-response","26","260703","0.0-8.0-1.5","https://mcdermottlab.mit.edu/mturk_stimuli/bjmedina/nhs-region-n_80/sequences/isi_16/len120/seq056_len120_s70_isi-1p0_0p0_16p0.json","10.55","true","4xrzcmuo5za","","2672","https://mcdermottlab.mit.edu/mturk_stimuli/bjmedina/mem_exp_v05/mem_stim_1020_f32.wav","0","demo","","","0","","","","","",""
"","","","","","html-keyboard-response","27","260755","0.0-8.0-0.6","https://mcdermottlab.mit.edu/mturk_stimuli/bjmedina/nhs-region-n_80/sequences/isi_16/len120/seq056_len120_s70_isi-1p0_0p0_16p0.json","10.55","true","4xrzcmuo5za","","null","<span style=""font-size: 40px"">+</span>","null","fixation","","","","","","","","",""
"","","","","","audio-button-response","28","265814","0.0-8.0-1.6","https://mcdermottlab.mit.edu/mturk_stimuli/bjmedina/nhs-region-n_80/sequences/isi_16/len120/seq056_len120_s70_isi-1p0_0p0_16p0.json","10.55","true","4xrzcmuo5za","","4269","https://mcdermottlab.mit.edu/mturk_stimuli/bjmedina/mem_exp_v05/mem_stim_1019_f32.wav","0","demo","","","0","","","","","",""
"","","","","","html-keyboard-response","29","265868","0.0-8.0-0.7","https://mcdermottlab.mit.edu/mturk_stimuli/bjmedina/nhs-region-n_80/sequences/isi_16/len120/seq056_len120_s70_isi-1p0_0p0_16p0.json","10.55","true","4xrzcmuo5za","","null","<span style=""font-size: 40px"">+</span>","null","fixation","","","","","","","","",""
"","","","","","audio-button-response","30","269431","0.0-8.0-1.7","https://mcdermottlab.mit.edu/mturk_stimuli/bjmedina/nhs-region-n_80/sequences/isi_16/len120/seq056_len120_s70_isi-1p0_0p0_16p0.json","10.55","true","4xrzcmuo5za","","3568","https://mcdermottlab.mit.edu/mturk_stimuli/bjmedina/mem_exp_v05/mem_stim_1021_f32.wav","3","demo","","","1","","","","","",""
"","","","","","html-keyboard-response","31","279660","0.0-9.0","https://mcdermottlab.mit.edu/mturk_stimuli/bjmedina/nhs-region-n_80/sequences/isi_16/len120/seq056_len120_s70_isi-1p0_0p0_16p0.json","10.55","true","4xrzcmuo5za","","10227","<p>You are now ready to start the experiment. Press SPACE when you are ready to start.</p>"," ","","","","","","","","","",""
"","","","","","html-keyboard-response","32","279711","0.0-10.0-1.0","https://mcdermottlab.mit.edu/mturk_stimuli/bjmedina/nhs-region-n_80/sequences/isi_16/len120/seq056_len120_s70_isi-1p0_0p0_16p0.json","10.55","true","4xrzcmuo5za","","null","<span style=""font-size: 40px"">+</span>","null","","","","","","","","","",""
"","","","","","audio-button-response","33","285143","0.0-10.0-2.0","https://mcdermottlab.mit.edu/mturk_stimuli/bjmedina/nhs-region-n_80/sequences/isi_16/len120/seq056_len120_s70_isi-1p0_0p0_16p0.json","10.55","true","4xrzcmuo5za","","4640","https://mcdermottlab.mit.edu/mturk_stimuli/bjmedina/nhs-region-n_80/mem_stim_54.wav","0","main","","","false","mem_stim_54.wav","false","-1","","1","correct_rejection"
"","","","","","html-keyboard-response","34","285209","0.0-10.0-1.1","https://mcdermottlab.mit.edu/mturk_stimuli/bjmedina/nhs-region-n_80/sequences/isi_16/len120/seq056_len120_s70_isi-1p0_0p0_16p0.json","10.55","true","4xrzcmuo5za","","null","<span style=""font-size: 40px"">+</span>","null","","","","","","","","","",""
"","","","","","audio-button-response","35","289695","0.0-10.0-2.1","https://mcdermottlab.mit.edu/mturk_stimuli/bjmedina/nhs-region-n_80/sequences/isi_16/len120/seq056_len120_s70_isi-1p0_0p0_16p0.json","10.55","true","4xrzcmuo5za","","3091","https://mcdermottlab.mit.edu/mturk_stimuli/bjmedina/nhs-region-n_80/mem_stim_21.wav","0","main","","","false","mem_stim_21.wav","false","-1","","1","correct_rejection"
"","","","","","html-keyboard-response","36","289757","0.0-10.0-1.2","https://mcdermottlab.mit.edu/mturk_stimuli/bjmedina/nhs-region-n_80/sequences/isi_16/len120/seq056_len120_s70_isi-1p0_0p0_16p0.json","10.55","true","4xrzcmuo5za","","null","<span style=""font-size: 40px"">+</span>","null","","","","","","","","","",""
"","","","","","audio-button-response","37","293015","0.0-10.0-2.2","https://mcdermottlab.mit.edu/mturk_stimuli/bjmedina/nhs-region-n_80/sequences/isi_16/len120/seq056_len120_s70_isi-1p0_0p0_16p0.json","10.55","true","4xrzcmuo5za","","2560","https://mcdermottlab.mit.edu/mturk_stimuli/bjmedina/nhs-region-n_80/mem_stim_1.wav","0","main","","","false","mem_stim_1.wav","false","-1","","1","correct_rejection"
"","","","","","html-keyboard-response","38","293078","0.0-10.0-1.3","https://mcdermottlab.mit.edu/mturk_stimuli/bjmedina/nhs-region-n_80/sequences/isi_16/len120/seq056_len120_s70_isi-1p0_0p0_16p0.json","10.55","true","4xrzcmuo5za","","null","<span style=""font-size: 40px"">+</span>","null","","","","","","","","","",""
"","","","","","audio-button-response","39","296327","0.0-10.0-2.3","https://mcdermottlab.mit.edu/mturk_stimuli/bjmedina/nhs-region-n_80/sequences/isi_16/len120/seq056_len120_s70_isi-1p0_0p0_16p0.json","10.55","true","4xrzcmuo5za","","2720","https://mcdermottlab.mit.edu/mturk_stimuli/bjmedina/nhs-region-n_80/mem_stim_46.wav","0","main","","","false","mem_stim_46.wav","false","-1","","1","correct_rejection"
"","","","","","html-keyboard-response","40","296394","0.0-10.0-1.4","https://mcdermottlab.mit.edu/mturk_stimuli/bjmedina/nhs-region-n_80/sequences/isi_16/len120/seq056_len120_s70_isi-1p0_0p0_16p0.json","10.55","true","4xrzcmuo5za","","null","<span style=""font-size: 40px"">+</span>","null","","","","","","","","","",""
"","","","","","audio-button-response","41","301495","0.0-10.0-2.4","https://mcdermottlab.mit.edu/mturk_stimuli/bjmedina/nhs-region-n_80/sequences/isi_16/len120/seq056_len120_s70_isi-1p0_0p0_16p0.json","10.55","true","4xrzcmuo5za","","2480","https://mcdermottlab.mit.edu/mturk_stimuli/bjmedina/nhs-region-n_80/mem_stim_31.wav","0","main","","","false","mem_stim_31.wav","false","-1","","1","correct_rejection"
"","","","","","html-keyboard-response","42","301553","0.0-10.0-1.5","https://mcdermottlab.mit.edu/mturk_stimuli/bjmedina/nhs-region-n_80/sequences/isi_16/len120/seq056_len120_s70_isi-1p0_0p0_16p0.json","10.55","true","4xrzcmuo5za","","null","<span style=""font-size: 40px"">+</span>","null","","","","","","","","","",""
"","","","","","audio-button-response","43","309111","0.0-10.0-2.5","https://mcdermottlab.mit.edu/mturk_stimuli/bjmedina/nhs-region-n_80/sequences/isi_16/len120/seq056_len120_s70_isi-1p0_0p0_16p0.json","10.55","true","4xrzcmuo5za","","2728","https://mcdermottlab.mit.edu/mturk_stimuli/bjmedina/nhs-region-n_80/mem_stim_45.wav","0","main","","","false","mem_stim_45.wav","false","-1","","1","correct_rejection"
"","","","","","html-keyboard-response","44","309166","0.0-10.0-1.6","https://mcdermottlab.mit.edu/mturk_stimuli/bjmedina/nhs-region-n_80/sequences/isi_16/len120/seq056_len120_s70_isi-1p0_0p0_16p0.json","10.55","true","4xrzcmuo5za","","null","<span style=""font-size: 40px"">+</span>","null","","","","","","","","","",""
"","","","","","audio-button-response","45","313271","0.0-10.0-2.6","https://mcdermottlab.mit.edu/mturk_stimuli/bjmedina/nhs-region-n_80/sequences/isi_16/len120/seq056_len120_s70_isi-1p0_0p0_16p0.json","10.55","true","4xrzcmuo5za","","2659","https://mcdermottlab.mit.edu/mturk_stimuli/bjmedina/nhs-region-n_80/mem_stim_63.wav","0","main","","","false","mem_stim_63.wav","false","-1","","1","correct_rejection"
"","","","","","html-keyboard-response","46","313327","0.0-10.0-1.7","https://mcdermottlab.mit.edu/mturk_stimuli/bjmedina/nhs-region-n_80/sequences/isi_16/len120/seq056_len120_s70_isi-1p0_0p0_16p0.json","10.55","true","4xrzcmuo5za","","null","<span style=""font-size: 40px"">+</span>","null","","","","","","","","","",""
"","","","","","audio-button-response","47","318623","0.0-10.0-2.7","https://mcdermottlab.mit.edu/mturk_stimuli/bjmedina/nhs-region-n_80/sequences/isi_16/len120/seq056_len120_s70_isi-1p0_0p0_16p0.json","10.55","true","4xrzcmuo5za","","2872","https://mcdermottlab.mit.edu/mturk_stimuli/bjmedina/nhs-region-n_80/mem_stim_77.wav","0","main","","","false","mem_stim_77.wav","false","-1","","1","correct_rejection"
"","","","","","html-keyboard-response","48","318690","0.0-10.0-1.8","https://mcdermottlab.mit.edu/mturk_stimuli/bjmedina/nhs-region-n_80/sequences/isi_16/len120/seq056_len120_s70_isi-1p0_0p0_16p0.json","10.55","true","4xrzcmuo5za","","null","<span style=""font-size: 40px"">+</span>","null","","","","","","","","","",""
"","","","","","audio-button-response","49","322776","0.0-10.0-2.8","https://mcdermottlab.mit.edu/mturk_stimuli/bjmedina/nhs-region-n_80/sequences/isi_16/len120/seq056_len120_s70_isi-1p0_0p0_16p0.json","10.55","true","4xrzcmuo5za","","2861","https://mcdermottlab.mit.edu/mturk_stimuli/bjmedina/nhs-region-n_80/mem_stim_11.wav","0","main","","","false","mem_stim_11.wav","false","-1","","1","correct_rejection"
"","","","","","html-keyboard-response","50","322831","0.0-10.0-1.9","https://mcdermottlab.mit.edu/mturk_stimuli/bjmedina/nhs-region-n_80/sequences/isi_16/len120/seq056_len120_s70_isi-1p0_0p0_16p0.json","10.55","true","4xrzcmuo5za","","null","<span style=""font-size: 40px"">+</span>","null","","","","","","","","","",""
"","","","","","audio-button-response","51","327526","0.0-10.0-2.9","https://mcdermottlab.mit.edu/mturk_stimuli/bjmedina/nhs-region-n_80/sequences/isi_16/len120/seq056_len120_s70_isi-1p0_0p0_16p0.json","10.55","true","4xrzcmuo5za","","3600","https://mcdermottlab.mit.edu/mturk_stimuli/bjmedina/nhs-region-n_80/mem_stim_49.wav","0","main","","","false","mem_stim_49.wav","false","-1","","1","correct_rejection"
"","","","","","html-keyboard-response","52","327595","0.0-10.0-1.10","https://mcdermottlab.mit.edu/mturk_stimuli/bjmedina/nhs-region-n_80/sequences/isi_16/len120/seq056_len120_s70_isi-1p0_0p0_16p0.json","10.55","true","4xrzcmuo5za","","null","<span style=""font-size: 40px"">+</span>","null","","","","","","","","","",""
"","","","","","audio-button-response","53","332111","0.0-10.0-2.10","https://mcdermottlab.mit.edu/mturk_stimuli/bjmedina/nhs-region-n_80/sequences/isi_16/len120/seq056_len120_s70_isi-1p0_0p0_16p0.json","10.55","true","4xrzcmuo5za","","3029","https://mcdermottlab.mit.edu/mturk_stimuli/bjmedina/nhs-region-n_80/mem_stim_4.wav","0","main","","","false","mem_stim_4.wav","false","-1","","1","correct_rejection"
"","","","","","html-keyboard-response","54","332177","0.0-10.0-1.11","https://mcdermottlab.mit.edu/mturk_stimuli/bjmedina/nhs-region-n_80/sequences/isi_16/len120/seq056_len120_s70_isi-1p0_0p0_16p0.json","10.55","true","4xrzcmuo5za","","null","<span style=""font-size: 40px"">+</span>","null","","","","","","","","","",""
"","","","","","audio-button-response","55","338854","0.0-10.0-2.11","https://mcdermottlab.mit.edu/mturk_stimuli/bjmedina/nhs-region-n_80/sequences/isi_16/len120/seq056_len120_s70_isi-1p0_0p0_16p0.json","10.55","true","4xrzcmuo5za","","2971","https://mcdermottlab.mit.edu/mturk_stimuli/bjmedina/nhs-region-n_80/mem_stim_43.wav","1","main","","","false","mem_stim_43.wav","false","-1","","0","false_alarm"
"","","","","","html-keyboard-response","56","338912","0.0-10.0-1.12","https://mcdermottlab.mit.edu/mturk_stimuli/bjmedina/nhs-region-n_80/sequences/isi_16/len120/seq056_len120_s70_isi-1p0_0p0_16p0.json","10.55","true","4xrzcmuo5za","","null","<span style=""font-size: 40px"">+</span>","null","","","","","","","","","",""
"","","","","","audio-button-response","57","344431","0.0-10.0-2.12","https://mcdermottlab.mit.edu/mturk_stimuli/bjmedina/nhs-region-n_80/sequences/isi_16/len120/seq056_len120_s70_isi-1p0_0p0_16p0.json","10.55","true","4xrzcmuo5za","","2760","https://mcdermottlab.mit.edu/mturk_stimuli/bjmedina/nhs-region-n_80/mem_stim_68.wav","0","main","","","false","mem_stim_68.wav","false","-1","","1","correct_rejection"
"","","","","","html-keyboard-response","58","344497","0.0-10.0-1.13","https://mcdermottlab.mit.edu/mturk_stimuli/bjmedina/nhs-region-n_80/sequences/isi_16/len120/seq056_len120_s70_isi-1p0_0p0_16p0.json","10.55","true","4xrzcmuo5za","","null","<span style=""font-size: 40px"">+</span>","null","","","","","","","","","",""
"","","","","","audio-button-response","59","346943","0.0-10.0-2.13","https://mcdermottlab.mit.edu/mturk_stimuli/bjmedina/nhs-region-n_80/sequences/isi_16/len120/seq056_len120_s70_isi-1p0_0p0_16p0.json","10.55","true","4xrzcmuo5za","","2451","https://mcdermottlab.mit.edu/mturk_stimuli/bjmedina/nhs-region-n_80/mem_stim_68.wav","3","main","","","true","mem_stim_68.wav","true","0","","0","miss"
"","","","","","html-keyboard-response","60","347013","0.0-10.0-1.14","https://mcdermottlab.mit.edu/mturk_stimuli/bjmedina/nhs-region-n_80/sequences/isi_16/len120/seq056_len120_s70_isi-1p0_0p0_16p0.json","10.55","true","4xrzcmuo5za","","null","<span style=""font-size: 40px"">+</span>","null","","","","","","","","","",""
"","","","","","audio-button-response","61","351567","0.0-10.0-2.14","https://mcdermottlab.mit.edu/mturk_stimuli/bjmedina/nhs-region-n_80/sequences/isi_16/len120/seq056_len120_s70_isi-1p0_0p0_16p0.json","10.55","true","4xrzcmuo5za","","2539","https://mcdermottlab.mit.edu/mturk_stimuli/bjmedina/nhs-region-n_80/mem_stim_37.wav","0","main","","","false","mem_stim_37.wav","false","-1","","1","correct_rejection"
"","","","","","html-keyboard-response","62","351627","0.0-10.0-1.15","https://mcdermottlab.mit.edu/mturk_stimuli/bjmedina/nhs-region-n_80/sequences/isi_16/len120/seq056_len120_s70_isi-1p0_0p0_16p0.json","10.55","true","4xrzcmuo5za","","null","<span style=""font-size: 40px"">+</span>","null","","","","","","","","","",""
"","","","","","audio-button-response","63","356567","0.0-10.0-2.15","https://mcdermottlab.mit.edu/mturk_stimuli/bjmedina/nhs-region-n_80/sequences/isi_16/len120/seq056_len120_s70_isi-1p0_0p0_16p0.json","10.55","true","4xrzcmuo5za","","3240","https://mcdermottlab.mit.edu/mturk_stimuli/bjmedina/nhs-region-n_80/mem_stim_71.wav","0","main","","","false","mem_stim_71.wav","false","-1","","1","correct_rejection"
"","","","","","html-keyboard-response","64","356637","0.0-10.0-1.16","https://mcdermottlab.mit.edu/mturk_stimuli/bjmedina/nhs-region-n_80/sequences/isi_16/len120/seq056_len120_s70_isi-1p0_0p0_16p0.json","10.55","true","4xrzcmuo5za","","null","<span style=""font-size: 40px"">+</span>","null","","","","","","","","","",""
"","","","","","audio-button-response","65","361390","0.0-10.0-2.16","https://mcdermottlab.mit.edu/mturk_stimuli/bjmedina/nhs-region-n_80/sequences/isi_16/len120/seq056_len120_s70_isi-1p0_0p0_16p0.json","10.55","true","4xrzcmuo5za","","3688","https://mcdermottlab.mit.edu/mturk_stimuli/bjmedina/nhs-region-n_80/mem_stim_74.wav","0","main","","","false","mem_stim_74.wav","false","-1","","1","correct_rejection"
"","","","","","html-keyboard-response","66","361447","0.0-10.0-1.17","https://mcdermottlab.mit.edu/mturk_stimuli/bjmedina/nhs-region-n_80/sequences/isi_16/len120/seq056_len120_s70_isi-1p0_0p0_16p0.json","10.55","true","4xrzcmuo5za","","null","<span style=""font-size: 40px"">+</span>","null","","","","","","","","","",""
"","","","","","audio-button-response","67","364391","0.0-10.0-2.17","https://mcdermottlab.mit.edu/mturk_stimuli/bjmedina/nhs-region-n_80/sequences/isi_16/len120/seq056_len120_s70_isi-1p0_0p0_16p0.json","10.55","true","4xrzcmuo5za","","2949","https://mcdermottlab.mit.edu/mturk_stimuli/bjmedina/nhs-region-n_80/mem_stim_54.wav","2","main","","","true","mem_stim_54.wav","false","16","","0","miss"
"","","","","","html-keyboard-response","68","364462","0.0-10.0-1.18","https://mcdermottlab.mit.edu/mturk_stimuli/bjmedina/nhs-region-n_80/sequences/isi_16/len120/seq056_len120_s70_isi-1p0_0p0_16p0.json","10.55","true","4xrzcmuo5za","","null","<span style=""font-size: 40px"">+</span>","null","","","","","","","","","",""
"","","","","","audio-button-response","69","369911","0.0-10.0-2.18","https://mcdermottlab.mit.edu/mturk_stimuli/bjmedina/nhs-region-n_80/sequences/isi_16/len120/seq056_len120_s70_isi-1p0_0p0_16p0.json","10.55","true","4xrzcmuo5za","","3560","https://mcdermottlab.mit.edu/mturk_stimuli/bjmedina/nhs-region-n_80/mem_stim_23.wav","1","main","","","false","mem_stim_23.wav","false","-1","","0","false_alarm"
"","","","","","html-keyboard-response","70","369977","0.0-10.0-1.19","https://mcdermottlab.mit.edu/mturk_stimuli/bjmedina/nhs-region-n_80/sequences/isi_16/len120/seq056_len120_s70_isi-1p0_0p0_16p0.json","10.55","true","4xrzcmuo5za","","null","<span style=""font-size: 40px"">+</span>","null","","","","","","","","","",""
"","","","","","audio-button-response","71","374143","0.0-10.0-2.19","https://mcdermottlab.mit.edu/mturk_stimuli/bjmedina/nhs-region-n_80/sequences/isi_16/len120/seq056_len120_s70_isi-1p0_0p0_16p0.json","10.55","true","4xrzcmuo5za","","4171","https://mcdermottlab.mit.edu/mturk_stimuli/bjmedina/nhs-region-n_80/mem_stim_1.wav","2","main","","","true","mem_stim_1.wav","false","16","","0","miss"
"","","","","","html-keyboard-response","72","374200","0.0-10.0-1.20","https://mcdermottlab.mit.edu/mturk_stimuli/bjmedina/nhs-region-n_80/sequences/isi_16/len120/seq056_len120_s70_isi-1p0_0p0_16p0.json","10.55","true","4xrzcmuo5za","","null","<span style=""font-size: 40px"">+</span>","null","","","","","","","","","",""
"","","","","","audio-button-response","73","379633","0.0-10.0-2.20","https://mcdermottlab.mit.edu/mturk_stimuli/bjmedina/nhs-region-n_80/sequences/isi_16/len120/seq056_len120_s70_isi-1p0_0p0_16p0.json","10.55","true","4xrzcmuo5za","","4299","https://mcdermottlab.mit.edu/mturk_stimuli/bjmedina/nhs-region-n_80/mem_stim_13.wav","1","main","","","false","mem_stim_13.wav","false","-1","","0","false_alarm"
"","","","","","html-keyboard-response","74","379698","0.0-10.0-1.21","https://mcdermottlab.mit.edu/mturk_stimuli/bjmedina/nhs-region-n_80/sequences/isi_16/len120/seq056_len120_s70_isi-1p0_0p0_16p0.json","10.55","true","4xrzcmuo5za","","null","<span style=""font-size: 40px"">+</span>","null","","","","","","","","","",""
"","","","","","audio-button-response","75","382537","0.0-10.0-2.21","https://mcdermottlab.mit.edu/mturk_stimuli/bjmedina/nhs-region-n_80/sequences/isi_16/len120/seq056_len120_s70_isi-1p0_0p0_16p0.json","10.55","true","4xrzcmuo5za","","2840","https://mcdermottlab.mit.edu/mturk_stimuli/bjmedina/nhs-region-n_80/mem_stim_31.wav","2","main","","","true","mem_stim_31.wav","false","16","","0","miss"
"","","","","","html-keyboard-response","76","382607","0.0-10.0-1.22","https://mcdermottlab.mit.edu/mturk_stimuli/bjmedina/nhs-region-n_80/sequences/isi_16/len120/seq056_len120_s70_isi-1p0_0p0_16p0.json","10.55","true","4xrzcmuo5za","","null","<span style=""font-size: 40px"">+</span>","null","","","","","","","","","",""
"","","","","","audio-button-response","77","385200","0.0-10.0-2.22","https://mcdermottlab.mit.edu/mturk_stimuli/bjmedina/nhs-region-n_80/sequences/isi_16/len120/seq056_len120_s70_isi-1p0_0p0_16p0.json","10.55","true","4xrzcmuo5za","","2600","https://mcdermottlab.mit.edu/mturk_stimuli/bjmedina/nhs-region-n_80/mem_stim_45.wav","2","main","","","true","mem_stim_45.wav","false","16","","0","miss"
"","","","","","html-keyboard-response","78","385258","0.0-10.0-1.23","https://mcdermottlab.mit.edu/mturk_stimuli/bjmedina/nhs-region-n_80/sequences/isi_16/len120/seq056_len120_s70_isi-1p0_0p0_16p0.json","10.55","true","4xrzcmuo5za","","null","<span style=""font-size: 40px"">+</span>","null","","","","","","","","","",""
"","","","","","audio-button-response","79","393760","0.0-10.0-2.23","https://mcdermottlab.mit.edu/mturk_stimuli/bjmedina/nhs-region-n_80/sequences/isi_16/len120/seq056_len120_s70_isi-1p0_0p0_16p0.json","10.55","true","4xrzcmuo5za","","3949","https://mcdermottlab.mit.edu/mturk_stimuli/bjmedina/nhs-region-n_80/mem_stim_20.wav","1","main","","","false","mem_stim_20.wav","false","-1","","0","false_alarm"
"","","","","","html-keyboard-response","80","393822","0.0-10.0-1.24","https://mcdermottlab.mit.edu/mturk_stimuli/bjmedina/nhs-region-n_80/sequences/isi_16/len120/seq056_len120_s70_isi-1p0_0p0_16p0.json","10.55","true","4xrzcmuo5za","","null","<span style=""font-size: 40px"">+</span>","null","","","","","","","","","",""
"","","","","","audio-button-response","81","396471","0.0-10.0-2.24","https://mcdermottlab.mit.edu/mturk_stimuli/bjmedina/nhs-region-n_80/sequences/isi_16/len120/seq056_len120_s70_isi-1p0_0p0_16p0.json","10.55","true","4xrzcmuo5za","","2648","https://mcdermottlab.mit.edu/mturk_stimuli/bjmedina/nhs-region-n_80/mem_stim_77.wav","2","main","","","true","mem_stim_77.wav","false","16","","0","miss"
"","","","","","html-keyboard-response","82","396539","0.0-10.0-1.25","https://mcdermottlab.mit.edu/mturk_stimuli/bjmedina/nhs-region-n_80/sequences/isi_16/len120/seq056_len120_s70_isi-1p0_0p0_16p0.json","10.55","true","4xrzcmuo5za","","null","<span style=""font-size: 40px"">+</span>","null","","","","","","","","","",""
"","","","","","audio-button-response","83","401919","0.0-10.0-2.25","https://mcdermottlab.mit.edu/mturk_stimuli/bjmedina/nhs-region-n_80/sequences/isi_16/len120/seq056_len120_s70_isi-1p0_0p0_16p0.json","10.55","true","4xrzcmuo5za","","3160","https://mcdermottlab.mit.edu/mturk_stimuli/bjmedina/nhs-region-n_80/mem_stim_16.wav","2","main","","","false","mem_stim_16.wav","false","-1","","1","correct_rejection"
"","","","","","html-keyboard-response","84","401977","0.0-10.0-1.26","https://mcdermottlab.mit.edu/mturk_stimuli/bjmedina/nhs-region-n_80/sequences/isi_16/len120/seq056_len120_s70_isi-1p0_0p0_16p0.json","10.55","true","4xrzcmuo5za","","null","<span style=""font-size: 40px"">+</span>","null","","","","","","","","","",""
"","","","","","audio-button-response","85","404559","0.0-10.0-2.26","https://mcdermottlab.mit.edu/mturk_stimuli/bjmedina/nhs-region-n_80/sequences/isi_16/len120/seq056_len120_s70_isi-1p0_0p0_16p0.json","10.55","true","4xrzcmuo5za","","2589","https://mcdermottlab.mit.edu/mturk_stimuli/bjmedina/nhs-region-n_80/mem_stim_49.wav","2","main","","","true","mem_stim_49.wav","false","16","","0","miss"
"","","","","","html-keyboard-response","86","404624","0.0-10.0-1.27","https://mcdermottlab.mit.edu/mturk_stimuli/bjmedina/nhs-region-n_80/sequences/isi_16/len120/seq056_len120_s70_isi-1p0_0p0_16p0.json","10.55","true","4xrzcmuo5za","","null","<span style=""font-size: 40px"">+</span>","null","","","","","","","","","",""
"","","","","","audio-button-response","87","407385","0.0-10.0-2.27","https://mcdermottlab.mit.edu/mturk_stimuli/bjmedina/nhs-region-n_80/sequences/isi_16/len120/seq056_len120_s70_isi-1p0_0p0_16p0.json","10.55","true","4xrzcmuo5za","","2760","https://mcdermottlab.mit.edu/mturk_stimuli/bjmedina/nhs-region-n_80/mem_stim_4.wav","2","main","","","true","mem_stim_4.wav","false","16","","0","miss"
"","","","","","html-keyboard-response","88","407445","0.0-10.0-1.28","https://mcdermottlab.mit.edu/mturk_stimuli/bjmedina/nhs-region-n_80/sequences/isi_16/len120/seq056_len120_s70_isi-1p0_0p0_16p0.json","10.55","true","4xrzcmuo5za","","null","<span style=""font-size: 40px"">+</span>","null","","","","","","","","","",""
"","","","","","audio-button-response","89","411983","0.0-10.0-2.28","https://mcdermottlab.mit.edu/mturk_stimuli/bjmedina/nhs-region-n_80/sequences/isi_16/len120/seq056_len120_s70_isi-1p0_0p0_16p0.json","10.55","true","4xrzcmuo5za","","2691","https://mcdermottlab.mit.edu/mturk_stimuli/bjmedina/nhs-region-n_80/mem_stim_51.wav","0","main","","","false","mem_stim_51.wav","false","-1","","1","correct_rejection"
"","","","","","html-keyboard-response","90","412050","0.0-10.0-1.29","https://mcdermottlab.mit.edu/mturk_stimuli/bjmedina/nhs-region-n_80/sequences/isi_16/len120/seq056_len120_s70_isi-1p0_0p0_16p0.json","10.55","true","4xrzcmuo5za","","null","<span style=""font-size: 40px"">+</span>","null","","","","","","","","","",""
"","","","","","audio-button-response","91","418495","0.0-10.0-2.29","https://mcdermottlab.mit.edu/mturk_stimuli/bjmedina/nhs-region-n_80/sequences/isi_16/len120/seq056_len120_s70_isi-1p0_0p0_16p0.json","10.55","true","4xrzcmuo5za","","3240","https://mcdermottlab.mit.edu/mturk_stimuli/bjmedina/nhs-region-n_80/mem_stim_53.wav","2","main","","","false","mem_stim_53.wav","false","-1","","1","correct_rejection"
"","","","","","html-keyboard-response","92","418556","0.0-10.0-1.30","https://mcdermottlab.mit.edu/mturk_stimuli/bjmedina/nhs-region-n_80/sequences/isi_16/len120/seq056_len120_s70_isi-1p0_0p0_16p0.json","10.55","true","4xrzcmuo5za","","null","<span style=""font-size: 40px"">+</span>","null","","","","","","","","","",""
"","","","","","audio-button-response","93","423567","0.0-10.0-2.30","https://mcdermottlab.mit.edu/mturk_stimuli/bjmedina/nhs-region-n_80/sequences/isi_16/len120/seq056_len120_s70_isi-1p0_0p0_16p0.json","10.55","true","4xrzcmuo5za","","3160","https://mcdermottlab.mit.edu/mturk_stimuli/bjmedina/nhs-region-n_80/mem_stim_48.wav","1","main","","","false","mem_stim_48.wav","false","-1","","0","false_alarm"
"","","","","","html-keyboard-response","94","423626","0.0-10.0-1.31","https://mcdermottlab.mit.edu/mturk_stimuli/bjmedina/nhs-region-n_80/sequences/isi_16/len120/seq056_len120_s70_isi-1p0_0p0_16p0.json","10.55","true","4xrzcmuo5za","","null","<span style=""font-size: 40px"">+</span>","null","","","","","","","","","",""
"","","","","","audio-button-response","95","427672","0.0-10.0-2.31","https://mcdermottlab.mit.edu/mturk_stimuli/bjmedina/nhs-region-n_80/sequences/isi_16/len120/seq056_len120_s70_isi-1p0_0p0_16p0.json","10.55","true","4xrzcmuo5za","","2800","https://mcdermottlab.mit.edu/mturk_stimuli/bjmedina/nhs-region-n_80/mem_stim_55.wav","2","main","","","false","mem_stim_55.wav","false","-1","","1","correct_rejection"
"","","","","","html-keyboard-response","96","427735","0.0-10.0-1.32","https://mcdermottlab.mit.edu/mturk_stimuli/bjmedina/nhs-region-n_80/sequences/isi_16/len120/seq056_len120_s70_isi-1p0_0p0_16p0.json","10.55","true","4xrzcmuo5za","","null","<span style=""font-size: 40px"">+</span>","null","","","","","","","","","",""
"","","","","","audio-button-response","97","430169","0.0-10.0-2.32","https://mcdermottlab.mit.edu/mturk_stimuli/bjmedina/nhs-region-n_80/sequences/isi_16/len120/seq056_len120_s70_isi-1p0_0p0_16p0.json","10.55","true","4xrzcmuo5za","","2440","https://mcdermottlab.mit.edu/mturk_stimuli/bjmedina/nhs-region-n_80/mem_stim_55.wav","3","main","","","true","mem_stim_55.wav","true","0","","0","miss"
"","","","","","html-keyboard-response","98","430240","0.0-10.0-1.33","https://mcdermottlab.mit.edu/mturk_stimuli/bjmedina/nhs-region-n_80/sequences/isi_16/len120/seq056_len120_s70_isi-1p0_0p0_16p0.json","10.55","true","4xrzcmuo5za","","null","<span style=""font-size: 40px"">+</span>","null","","","","","","","","","",""
"","","","","","audio-button-response","99","435303","0.0-10.0-2.33","https://mcdermottlab.mit.edu/mturk_stimuli/bjmedina/nhs-region-n_80/sequences/isi_16/len120/seq056_len120_s70_isi-1p0_0p0_16p0.json","10.55","true","4xrzcmuo5za","","2571","https://mcdermottlab.mit.edu/mturk_stimuli/bjmedina/nhs-region-n_80/mem_stim_35.wav","1","main","","","false","mem_stim_35.wav","false","-1","","0","false_alarm"
"","","","","","html-keyboard-response","100","435367","0.0-10.0-1.34","https://mcdermottlab.mit.edu/mturk_stimuli/bjmedina/nhs-region-n_80/sequences/isi_16/len120/seq056_len120_s70_isi-1p0_0p0_16p0.json","10.55","true","4xrzcmuo5za","","null","<span style=""font-size: 40px"">+</span>","null","","","","","","","","","",""
"","","","","","audio-button-response","101","442280","0.0-10.0-2.34","https://mcdermottlab.mit.edu/mturk_stimuli/bjmedina/nhs-region-n_80/sequences/isi_16/len120/seq056_len120_s70_isi-1p0_0p0_16p0.json","10.55","true","4xrzcmuo5za","","2779","https://mcdermottlab.mit.edu/mturk_stimuli/bjmedina/nhs-region-n_80/mem_stim_69.wav","0","main","","","false","mem_stim_69.wav","false","-1","","1","correct_rejection"
"","","","","","html-keyboard-response","102","442351","0.0-10.0-1.35","https://mcdermottlab.mit.edu/mturk_stimuli/bjmedina/nhs-region-n_80/sequences/isi_16/len120/seq056_len120_s70_isi-1p0_0p0_16p0.json","10.55","true","4xrzcmuo5za","","null","<span style=""font-size: 40px"">+</span>","null","","","","","","","","","",""
"","","","","","audio-button-response","103","447737","0.0-10.0-2.35","https://mcdermottlab.mit.edu/mturk_stimuli/bjmedina/nhs-region-n_80/sequences/isi_16/len120/seq056_len120_s70_isi-1p0_0p0_16p0.json","10.55","true","4xrzcmuo5za","","3400","https://mcdermottlab.mit.edu/mturk_stimuli/bjmedina/nhs-region-n_80/mem_stim_79.wav","1","main","","","false","mem_stim_79.wav","false","-1","","0","false_alarm"
"","","","","","html-keyboard-response","104","447798","0.0-10.0-1.36","https://mcdermottlab.mit.edu/mturk_stimuli/bjmedina/nhs-region-n_80/sequences/isi_16/len120/seq056_len120_s70_isi-1p0_0p0_16p0.json","10.55","true","4xrzcmuo5za","","null","<span style=""font-size: 40px"">+</span>","null","","","","","","","","","",""
"","","","","","audio-button-response","105","452127","0.0-10.0-2.36","https://mcdermottlab.mit.edu/mturk_stimuli/bjmedina/nhs-region-n_80/sequences/isi_16/len120/seq056_len120_s70_isi-1p0_0p0_16p0.json","10.55","true","4xrzcmuo5za","","2960","https://mcdermottlab.mit.edu/mturk_stimuli/bjmedina/nhs-region-n_80/mem_stim_60.wav","0","main","","","false","mem_stim_60.wav","false","-1","","1","correct_rejection"
"","","","","","html-keyboard-response","106","452187","0.0-10.0-1.37","https://mcdermottlab.mit.edu/mturk_stimuli/bjmedina/nhs-region-n_80/sequences/isi_16/len120/seq056_len120_s70_isi-1p0_0p0_16p0.json","10.55","true","4xrzcmuo5za","","null","<span style=""font-size: 40px"">+</span>","null","","","","","","","","","",""
"","","","","","audio-button-response","107","454552","0.0-10.0-2.37","https://mcdermottlab.mit.edu/mturk_stimuli/bjmedina/nhs-region-n_80/sequences/isi_16/len120/seq056_len120_s70_isi-1p0_0p0_16p0.json","10.55","true","4xrzcmuo5za","","2368","https://mcdermottlab.mit.edu/mturk_stimuli/bjmedina/nhs-region-n_80/mem_stim_60.wav","3","main","","","true","mem_stim_60.wav","true","0","","0","miss"
"","","","","","html-keyboard-response","108","454616","0.0-10.0-1.38","https://mcdermottlab.mit.edu/mturk_stimuli/bjmedina/nhs-region-n_80/sequences/isi_16/len120/seq056_len120_s70_isi-1p0_0p0_16p0.json","10.55","true","4xrzcmuo5za","","null","<span style=""font-size: 40px"">+</span>","null","","","","","","","","","",""
"","","","","","audio-button-response","109","460463","0.0-10.0-2.38","https://mcdermottlab.mit.edu/mturk_stimuli/bjmedina/nhs-region-n_80/sequences/isi_16/len120/seq056_len120_s70_isi-1p0_0p0_16p0.json","10.55","true","4xrzcmuo5za","","3232","https://mcdermottlab.mit.edu/mturk_stimuli/bjmedina/nhs-region-n_80/mem_stim_59.wav","1","main","","","false","mem_stim_59.wav","false","-1","","0","false_alarm"
"","","","","","html-keyboard-response","110","460525","0.0-10.0-1.39","https://mcdermottlab.mit.edu/mturk_stimuli/bjmedina/nhs-region-n_80/sequences/isi_16/len120/seq056_len120_s70_isi-1p0_0p0_16p0.json","10.55","true","4xrzcmuo5za","","null","<span style=""font-size: 40px"">+</span>","null","","","","","","","","","",""
"","","","","","audio-button-response","111","467495","0.0-10.0-2.39","https://mcdermottlab.mit.edu/mturk_stimuli/bjmedina/nhs-region-n_80/sequences/isi_16/len120/seq056_len120_s70_isi-1p0_0p0_16p0.json","10.55","true","4xrzcmuo5za","","3720","https://mcdermottlab.mit.edu/mturk_stimuli/bjmedina/nhs-region-n_80/mem_stim_14.wav","1","main","","","false","mem_stim_14.wav","false","-1","","0","false_alarm"
"","","","","","html-keyboard-response","112","467558","0.0-10.0-1.40","https://mcdermottlab.mit.edu/mturk_stimuli/bjmedina/nhs-region-n_80/sequences/isi_16/len120/seq056_len120_s70_isi-1p0_0p0_16p0.json","10.55","true","4xrzcmuo5za","","null","<span style=""font-size: 40px"">+</span>","null","","","","","","","","","",""
"","","","","","audio-button-response","113","474007","0.0-10.0-2.40","https://mcdermottlab.mit.edu/mturk_stimuli/bjmedina/nhs-region-n_80/sequences/isi_16/len120/seq056_len120_s70_isi-1p0_0p0_16p0.json","10.55","true","4xrzcmuo5za","","3171","https://mcdermottlab.mit.edu/mturk_stimuli/bjmedina/nhs-region-n_80/mem_stim_8.wav","1","main","","","false","mem_stim_8.wav","false","-1","","0","false_alarm"
"","","","","","html-keyboard-response","114","474069","0.0-10.0-1.41","https://mcdermottlab.mit.edu/mturk_stimuli/bjmedina/nhs-region-n_80/sequences/isi_16/len120/seq056_len120_s70_isi-1p0_0p0_16p0.json","10.55","true","4xrzcmuo5za","","null","<span style=""font-size: 40px"">+</span>","null","","","","","","","","","",""
"","","","","","audio-button-response","115","480543","0.0-10.0-2.41","https://mcdermottlab.mit.edu/mturk_stimuli/bjmedina/nhs-region-n_80/sequences/isi_16/len120/seq056_len120_s70_isi-1p0_0p0_16p0.json","10.55","true","4xrzcmuo5za","","4160","https://mcdermottlab.mit.edu/mturk_stimuli/bjmedina/nhs-region-n_80/mem_stim_5.wav","2","main","","","false","mem_stim_5.wav","false","-1","","1","correct_rejection"
"","","","","","html-keyboard-response","116","480618","0.0-10.0-1.42","https://mcdermottlab.mit.edu/mturk_stimuli/bjmedina/nhs-region-n_80/sequences/isi_16/len120/seq056_len120_s70_isi-1p0_0p0_16p0.json","10.55","true","4xrzcmuo5za","","null","<span style=""font-size: 40px"">+</span>","null","","","","","","","","","",""
"","","","","","audio-button-response","117","483159","0.0-10.0-2.42","https://mcdermottlab.mit.edu/mturk_stimuli/bjmedina/nhs-region-n_80/sequences/isi_16/len120/seq056_len120_s70_isi-1p0_0p0_16p0.json","10.55","true","4xrzcmuo5za","","2549","https://mcdermottlab.mit.edu/mturk_stimuli/bjmedina/nhs-region-n_80/mem_stim_16.wav","1","main","","","true","mem_stim_16.wav","false","16","","1","hit"
"","","","","","html-keyboard-response","118","483224","0.0-10.0-1.43","https://mcdermottlab.mit.edu/mturk_stimuli/bjmedina/nhs-region-n_80/sequences/isi_16/len120/seq056_len120_s70_isi-1p0_0p0_16p0.json","10.55","true","4xrzcmuo5za","","null","<span style=""font-size: 40px"">+</span>","null","","","","","","","","","",""
"","","","","","audio-button-response","119","488831","0.0-10.0-2.43","https://mcdermottlab.mit.edu/mturk_stimuli/bjmedina/nhs-region-n_80/sequences/isi_16/len120/seq056_len120_s70_isi-1p0_0p0_16p0.json","10.55","true","4xrzcmuo5za","","2829","https://mcdermottlab.mit.edu/mturk_stimuli/bjmedina/nhs-region-n_80/mem_stim_2.wav","1","main","","","false","mem_stim_2.wav","false","-1","","0","false_alarm"
"","","","","","html-keyboard-response","120","488899","0.0-10.0-1.44","https://mcdermottlab.mit.edu/mturk_stimuli/bjmedina/nhs-region-n_80/sequences/isi_16/len120/seq056_len120_s70_isi-1p0_0p0_16p0.json","10.55","true","4xrzcmuo5za","","null","<span style=""font-size: 40px"">+</span>","null","","","","","","","","","",""
"","","","","","audio-button-response","121","494081","0.0-10.0-2.44","https://mcdermottlab.mit.edu/mturk_stimuli/bjmedina/nhs-region-n_80/sequences/isi_16/len120/seq056_len120_s70_isi-1p0_0p0_16p0.json","10.55","true","4xrzcmuo5za","","2651","https://mcdermottlab.mit.edu/mturk_stimuli/bjmedina/nhs-region-n_80/mem_stim_75.wav","0","main","","","false","mem_stim_75.wav","false","-1","","1","correct_rejection"
"","","","","","html-keyboard-response","122","494142","0.0-10.0-1.45","https://mcdermottlab.mit.edu/mturk_stimuli/bjmedina/nhs-region-n_80/sequences/isi_16/len120/seq056_len120_s70_isi-1p0_0p0_16p0.json","10.55","true","4xrzcmuo5za","","null","<span style=""font-size: 40px"">+</span>","null","","","","","","","","","",""
"","","","","","audio-button-response","123","496986","0.0-10.0-2.45","https://mcdermottlab.mit.edu/mturk_stimuli/bjmedina/nhs-region-n_80/sequences/isi_16/len120/seq056_len120_s70_isi-1p0_0p0_16p0.json","10.55","true","4xrzcmuo5za","","2840","https://mcdermottlab.mit.edu/mturk_stimuli/bjmedina/nhs-region-n_80/mem_stim_51.wav","1","main","","","true","mem_stim_51.wav","false","16","","1","hit"
"","","","","","html-keyboard-response","124","497047","0.0-10.0-1.46","https://mcdermottlab.mit.edu/mturk_stimuli/bjmedina/nhs-region-n_80/sequences/isi_16/len120/seq056_len120_s70_isi-1p0_0p0_16p0.json","10.55","true","4xrzcmuo5za","","null","<span style=""font-size: 40px"">+</span>","null","","","","","","","","","",""
"","","","","","audio-button-response","125","499616","0.0-10.0-2.46","https://mcdermottlab.mit.edu/mturk_stimuli/bjmedina/nhs-region-n_80/sequences/isi_16/len120/seq056_len120_s70_isi-1p0_0p0_16p0.json","10.55","true","4xrzcmuo5za","","2571","https://mcdermottlab.mit.edu/mturk_stimuli/bjmedina/nhs-region-n_80/mem_stim_53.wav","2","main","","","true","mem_stim_53.wav","false","16","","0","miss"
"","","","","","html-keyboard-response","126","499680","0.0-10.0-1.47","https://mcdermottlab.mit.edu/mturk_stimuli/bjmedina/nhs-region-n_80/sequences/isi_16/len120/seq056_len120_s70_isi-1p0_0p0_16p0.json","10.55","true","4xrzcmuo5za","","null","<span style=""font-size: 40px"">+</span>","null","","","","","","","","","",""
"","","","","","audio-button-response","127","502455","0.0-10.0-2.47","https://mcdermottlab.mit.edu/mturk_stimuli/bjmedina/nhs-region-n_80/sequences/isi_16/len120/seq056_len120_s70_isi-1p0_0p0_16p0.json","10.55","true","4xrzcmuo5za","","2771","https://mcdermottlab.mit.edu/mturk_stimuli/bjmedina/nhs-region-n_80/mem_stim_48.wav","2","main","","","true","mem_stim_48.wav","false","16","","0","miss"
"","","","","","html-keyboard-response","128","502518","0.0-10.0-1.48","https://mcdermottlab.mit.edu/mturk_stimuli/bjmedina/nhs-region-n_80/sequences/isi_16/len120/seq056_len120_s70_isi-1p0_0p0_16p0.json","10.55","true","4xrzcmuo5za","","null","<span style=""font-size: 40px"">+</span>","null","","","","","","","","","",""
"","","","","","audio-button-response","129","506142","0.0-10.0-2.48","https://mcdermottlab.mit.edu/mturk_stimuli/bjmedina/nhs-region-n_80/sequences/isi_16/len120/seq056_len120_s70_isi-1p0_0p0_16p0.json","10.55","true","4xrzcmuo5za","","2421","https://mcdermottlab.mit.edu/mturk_stimuli/bjmedina/nhs-region-n_80/mem_stim_66.wav","0","main","","","false","mem_stim_66.wav","false","-1","","1","correct_rejection"
"","","","","","html-keyboard-response","130","506208","0.0-10.0-1.49","https://mcdermottlab.mit.edu/mturk_stimuli/bjmedina/nhs-region-n_80/sequences/isi_16/len120/seq056_len120_s70_isi-1p0_0p0_16p0.json","10.55","true","4xrzcmuo5za","","null","<span style=""font-size: 40px"">+</span>","null","","","","","","","","","",""
"","","","","","audio-button-response","131","508599","0.0-10.0-2.49","https://mcdermottlab.mit.edu/mturk_stimuli/bjmedina/nhs-region-n_80/sequences/isi_16/len120/seq056_len120_s70_isi-1p0_0p0_16p0.json","10.55","true","4xrzcmuo5za","","2400","https://mcdermottlab.mit.edu/mturk_stimuli/bjmedina/nhs-region-n_80/mem_stim_66.wav","3","main","","","true","mem_stim_66.wav","true","0","","0","miss"
"","","","","","html-keyboard-response","132","508661","0.0-10.0-1.50","https://mcdermottlab.mit.edu/mturk_stimuli/bjmedina/nhs-region-n_80/sequences/isi_16/len120/seq056_len120_s70_isi-1p0_0p0_16p0.json","10.55","true","4xrzcmuo5za","","null","<span style=""font-size: 40px"">+</span>","null","","","","","","","","","",""
"","","","","","audio-button-response","133","511568","0.0-10.0-2.50","https://mcdermottlab.mit.edu/mturk_stimuli/bjmedina/nhs-region-n_80/sequences/isi_16/len120/seq056_len120_s70_isi-1p0_0p0_16p0.json","10.55","true","4xrzcmuo5za","","2899","https://mcdermottlab.mit.edu/mturk_stimuli/bjmedina/nhs-region-n_80/mem_stim_35.wav","2","main","","","true","mem_stim_35.wav","false","16","","0","miss"
"","","","","","html-keyboard-response","134","511638","0.0-10.0-1.51","https://mcdermottlab.mit.edu/mturk_stimuli/bjmedina/nhs-region-n_80/sequences/isi_16/len120/seq056_len120_s70_isi-1p0_0p0_16p0.json","10.55","true","4xrzcmuo5za","","null","<span style=""font-size: 40px"">+</span>","null","","","","","","","","","",""
"","","","","","audio-button-response","135","516254","0.0-10.0-2.51","https://mcdermottlab.mit.edu/mturk_stimuli/bjmedina/nhs-region-n_80/sequences/isi_16/len120/seq056_len120_s70_isi-1p0_0p0_16p0.json","10.55","true","4xrzcmuo5za","","3080","https://mcdermottlab.mit.edu/mturk_stimuli/bjmedina/nhs-region-n_80/mem_stim_70.wav","1","main","","","false","mem_stim_70.wav","false","-1","","0","false_alarm"
"","","","","","html-keyboard-response","136","516311","0.0-10.0-1.52","https://mcdermottlab.mit.edu/mturk_stimuli/bjmedina/nhs-region-n_80/sequences/isi_16/len120/seq056_len120_s70_isi-1p0_0p0_16p0.json","10.55","true","4xrzcmuo5za","","null","<span style=""font-size: 40px"">+</span>","null","","","","","","","","","",""
"","","","","","audio-button-response","137","522152","0.0-10.0-2.52","https://mcdermottlab.mit.edu/mturk_stimuli/bjmedina/nhs-region-n_80/sequences/isi_16/len120/seq056_len120_s70_isi-1p0_0p0_16p0.json","10.55","true","4xrzcmuo5za","","4299","https://mcdermottlab.mit.edu/mturk_stimuli/bjmedina/nhs-region-n_80/mem_stim_32.wav","1","main","","","false","mem_stim_32.wav","false","-1","","0","false_alarm"
"","","","","","html-keyboard-response","138","522214","0.0-10.0-1.53","https://mcdermottlab.mit.edu/mturk_stimuli/bjmedina/nhs-region-n_80/sequences/isi_16/len120/seq056_len120_s70_isi-1p0_0p0_16p0.json","10.55","true","4xrzcmuo5za","","null","<span style=""font-size: 40px"">+</span>","null","","","","","","","","","",""
"","","","","","audio-button-response","139","531847","0.0-10.0-2.53","https://mcdermottlab.mit.edu/mturk_stimuli/bjmedina/nhs-region-n_80/sequences/isi_16/len120/seq056_len120_s70_isi-1p0_0p0_16p0.json","10.55","true","4xrzcmuo5za","","3680","https://mcdermottlab.mit.edu/mturk_stimuli/bjmedina/nhs-region-n_80/mem_stim_39.wav","2","main","","","false","mem_stim_39.wav","false","-1","","1","correct_rejection"
"","","","","","html-keyboard-response","140","531911","0.0-10.0-1.54","https://mcdermottlab.mit.edu/mturk_stimuli/bjmedina/nhs-region-n_80/sequences/isi_16/len120/seq056_len120_s70_isi-1p0_0p0_16p0.json","10.55","true","4xrzcmuo5za","","null","<span style=""font-size: 40px"">+</span>","null","","","","","","","","","",""
"","","","","","audio-button-response","141","536511","0.0-10.0-2.54","https://mcdermottlab.mit.edu/mturk_stimuli/bjmedina/nhs-region-n_80/sequences/isi_16/len120/seq056_len120_s70_isi-1p0_0p0_16p0.json","10.55","true","4xrzcmuo5za","","3048","https://mcdermottlab.mit.edu/mturk_stimuli/bjmedina/nhs-region-n_80/mem_stim_30.wav","2","main","","","false","mem_stim_30.wav","false","-1","","1","correct_rejection"
"","","","","","html-keyboard-response","142","536578","0.0-10.0-1.55","https://mcdermottlab.mit.edu/mturk_stimuli/bjmedina/nhs-region-n_80/sequences/isi_16/len120/seq056_len120_s70_isi-1p0_0p0_16p0.json","10.55","true","4xrzcmuo5za","","null","<span style=""font-size: 40px"">+</span>","null","","","","","","","","","",""
"","","","","","audio-button-response","143","539871","0.0-10.0-2.55","https://mcdermottlab.mit.edu/mturk_stimuli/bjmedina/nhs-region-n_80/sequences/isi_16/len120/seq056_len120_s70_isi-1p0_0p0_16p0.json","10.55","true","4xrzcmuo5za","","3299","https://mcdermottlab.mit.edu/mturk_stimuli/bjmedina/nhs-region-n_80/mem_stim_59.wav","1","main","","","true","mem_stim_59.wav","false","16","","1","hit"
"","","","","","html-keyboard-response","144","539944","0.0-10.0-1.56","https://mcdermottlab.mit.edu/mturk_stimuli/bjmedina/nhs-region-n_80/sequences/isi_16/len120/seq056_len120_s70_isi-1p0_0p0_16p0.json","10.55","true","4xrzcmuo5za","","null","<span style=""font-size: 40px"">+</span>","null","","","","","","","","","",""
"","","","","","audio-button-response","145","542960","0.0-10.0-2.56","https://mcdermottlab.mit.edu/mturk_stimuli/bjmedina/nhs-region-n_80/sequences/isi_16/len120/seq056_len120_s70_isi-1p0_0p0_16p0.json","10.55","true","4xrzcmuo5za","","3019","https://mcdermottlab.mit.edu/mturk_stimuli/bjmedina/nhs-region-n_80/mem_stim_14.wav","2","main","","","true","mem_stim_14.wav","false","16","","0","miss"
"","","","","","html-keyboard-response","146","543024","0.0-10.0-1.57","https://mcdermottlab.mit.edu/mturk_stimuli/bjmedina/nhs-region-n_80/sequences/isi_16/len120/seq056_len120_s70_isi-1p0_0p0_16p0.json","10.55","true","4xrzcmuo5za","","null","<span style=""font-size: 40px"">+</span>","null","","","","","","","","","",""
"","","","","","audio-button-response","147","545464","0.0-10.0-2.57","https://mcdermottlab.mit.edu/mturk_stimuli/bjmedina/nhs-region-n_80/sequences/isi_16/len120/seq056_len120_s70_isi-1p0_0p0_16p0.json","10.55","true","4xrzcmuo5za","","2440","https://mcdermottlab.mit.edu/mturk_stimuli/bjmedina/nhs-region-n_80/mem_stim_8.wav","2","main","","","true","mem_stim_8.wav","false","16","","0","miss"
"","","","","","html-keyboard-response","148","545536","0.0-10.0-1.58","https://mcdermottlab.mit.edu/mturk_stimuli/bjmedina/nhs-region-n_80/sequences/isi_16/len120/seq056_len120_s70_isi-1p0_0p0_16p0.json","10.55","true","4xrzcmuo5za","","null","<span style=""font-size: 40px"">+</span>","null","","","","","","","","","",""
"","","","","","audio-button-response","149","548711","0.0-10.0-2.58","https://mcdermottlab.mit.edu/mturk_stimuli/bjmedina/nhs-region-n_80/sequences/isi_16/len120/seq056_len120_s70_isi-1p0_0p0_16p0.json","10.55","true","4xrzcmuo5za","","3179","https://mcdermottlab.mit.edu/mturk_stimuli/bjmedina/nhs-region-n_80/mem_stim_5.wav","1","main","","","true","mem_stim_5.wav","false","16","","1","hit"
"","","","","","html-keyboard-response","150","548771","0.0-10.0-1.59","https://mcdermottlab.mit.edu/mturk_stimuli/bjmedina/nhs-region-n_80/sequences/isi_16/len120/seq056_len120_s70_isi-1p0_0p0_16p0.json","10.55","true","4xrzcmuo5za","","null","<span style=""font-size: 40px"">+</span>","null","","","","","","","","","",""
"","","","","","audio-button-response","151","553463","0.0-10.0-2.59","https://mcdermottlab.mit.edu/mturk_stimuli/bjmedina/nhs-region-n_80/sequences/isi_16/len120/seq056_len120_s70_isi-1p0_0p0_16p0.json","10.55","true","4xrzcmuo5za","","2672","https://mcdermottlab.mit.edu/mturk_stimuli/bjmedina/nhs-region-n_80/mem_stim_56.wav","1","main","","","false","mem_stim_56.wav","false","-1","","0","false_alarm"
"","","","","","html-keyboard-response","152","553538","0.0-10.0-1.60","https://mcdermottlab.mit.edu/mturk_stimuli/bjmedina/nhs-region-n_80/sequences/isi_16/len120/seq056_len120_s70_isi-1p0_0p0_16p0.json","10.55","true","4xrzcmuo5za","","null","<span style=""font-size: 40px"">+</span>","null","","","","","","","","","",""
"","","","","","audio-button-response","153","556255","0.0-10.0-2.60","https://mcdermottlab.mit.edu/mturk_stimuli/bjmedina/nhs-region-n_80/sequences/isi_16/len120/seq056_len120_s70_isi-1p0_0p0_16p0.json","10.55","true","4xrzcmuo5za","","2720","https://mcdermottlab.mit.edu/mturk_stimuli/bjmedina/nhs-region-n_80/mem_stim_2.wav","2","main","","","true","mem_stim_2.wav","false","16","","0","miss"
"","","","","","html-keyboard-response","154","556320","0.0-10.0-1.61","https://mcdermottlab.mit.edu/mturk_stimuli/bjmedina/nhs-region-n_80/sequences/isi_16/len120/seq056_len120_s70_isi-1p0_0p0_16p0.json","10.55","true","4xrzcmuo5za","","null","<span style=""font-size: 40px"">+</span>","null","","","","","","","","","",""
"","","","","","audio-button-response","155","561727","0.0-10.0-2.61","https://mcdermottlab.mit.edu/mturk_stimuli/bjmedina/nhs-region-n_80/sequences/isi_16/len120/seq056_len120_s70_isi-1p0_0p0_16p0.json","10.55","true","4xrzcmuo5za","","3429","https://mcdermottlab.mit.edu/mturk_stimuli/bjmedina/nhs-region-n_80/mem_stim_73.wav","0","main","","","false","mem_stim_73.wav","false","-1","","1","correct_rejection"
"","","","","","html-keyboard-response","156","561787","0.0-10.0-1.62","https://mcdermottlab.mit.edu/mturk_stimuli/bjmedina/nhs-region-n_80/sequences/isi_16/len120/seq056_len120_s70_isi-1p0_0p0_16p0.json","10.55","true","4xrzcmuo5za","","null","<span style=""font-size: 40px"">+</span>","null","","","","","","","","","",""
"","","","","","audio-button-response","157","570607","0.0-10.0-2.62","https://mcdermottlab.mit.edu/mturk_stimuli/bjmedina/nhs-region-n_80/sequences/isi_16/len120/seq056_len120_s70_isi-1p0_0p0_16p0.json","10.55","true","4xrzcmuo5za","","3491","https://mcdermottlab.mit.edu/mturk_stimuli/bjmedina/nhs-region-n_80/mem_stim_40.wav","1","main","","","false","mem_stim_40.wav","false","-1","","0","false_alarm"
"","","","","","html-keyboard-response","158","570667","0.0-10.0-1.63","https://mcdermottlab.mit.edu/mturk_stimuli/bjmedina/nhs-region-n_80/sequences/isi_16/len120/seq056_len120_s70_isi-1p0_0p0_16p0.json","10.55","true","4xrzcmuo5za","","null","<span style=""font-size: 40px"">+</span>","null","","","","","","","","","",""
"","","","","","audio-button-response","159","575271","0.0-10.0-2.63","https://mcdermottlab.mit.edu/mturk_stimuli/bjmedina/nhs-region-n_80/sequences/isi_16/len120/seq056_len120_s70_isi-1p0_0p0_16p0.json","10.55","true","4xrzcmuo5za","","3248","https://mcdermottlab.mit.edu/mturk_stimuli/bjmedina/nhs-region-n_80/mem_stim_18.wav","1","main","","","false","mem_stim_18.wav","false","-1","","0","false_alarm"
"","","","","","html-keyboard-response","160","575330","0.0-10.0-1.64","https://mcdermottlab.mit.edu/mturk_stimuli/bjmedina/nhs-region-n_80/sequences/isi_16/len120/seq056_len120_s70_isi-1p0_0p0_16p0.json","10.55","true","4xrzcmuo5za","","null","<span style=""font-size: 40px"">+</span>","null","","","","","","","","","",""
"","","","","","audio-button-response","161","579631","0.0-10.0-2.64","https://mcdermottlab.mit.edu/mturk_stimuli/bjmedina/nhs-region-n_80/sequences/isi_16/len120/seq056_len120_s70_isi-1p0_0p0_16p0.json","10.55","true","4xrzcmuo5za","","3160","https://mcdermottlab.mit.edu/mturk_stimuli/bjmedina/nhs-region-n_80/mem_stim_64.wav","1","main","","","false","mem_stim_64.wav","false","-1","","0","false_alarm"
"","","","","","html-keyboard-response","162","579704","0.0-10.0-1.65","https://mcdermottlab.mit.edu/mturk_stimuli/bjmedina/nhs-region-n_80/sequences/isi_16/len120/seq056_len120_s70_isi-1p0_0p0_16p0.json","10.55","true","4xrzcmuo5za","","null","<span style=""font-size: 40px"">+</span>","null","","","","","","","","","",""
"","","","","","audio-button-response","163","584400","0.0-10.0-2.65","https://mcdermottlab.mit.edu/mturk_stimuli/bjmedina/nhs-region-n_80/sequences/isi_16/len120/seq056_len120_s70_isi-1p0_0p0_16p0.json","10.55","true","4xrzcmuo5za","","3051","https://mcdermottlab.mit.edu/mturk_stimuli/bjmedina/nhs-region-n_80/mem_stim_34.wav","0","main","","","false","mem_stim_34.wav","false","-1","","1","correct_rejection"
"","","","","","html-keyboard-response","164","584469","0.0-10.0-1.66","https://mcdermottlab.mit.edu/mturk_stimuli/bjmedina/nhs-region-n_80/sequences/isi_16/len120/seq056_len120_s70_isi-1p0_0p0_16p0.json","10.55","true","4xrzcmuo5za","","null","<span style=""font-size: 40px"">+</span>","null","","","","","","","","","",""
"","","","","","audio-button-response","165","589304","0.0-10.0-2.66","https://mcdermottlab.mit.edu/mturk_stimuli/bjmedina/nhs-region-n_80/sequences/isi_16/len120/seq056_len120_s70_isi-1p0_0p0_16p0.json","10.55","true","4xrzcmuo5za","","2872","https://mcdermottlab.mit.edu/mturk_stimuli/bjmedina/nhs-region-n_80/mem_stim_41.wav","2","main","","","false","mem_stim_41.wav","false","-1","","1","correct_rejection"
"","","","","","html-keyboard-response","166","589376","0.0-10.0-1.67","https://mcdermottlab.mit.edu/mturk_stimuli/bjmedina/nhs-region-n_80/sequences/isi_16/len120/seq056_len120_s70_isi-1p0_0p0_16p0.json","10.55","true","4xrzcmuo5za","","null","<span style=""font-size: 40px"">+</span>","null","","","","","","","","","",""
"","","","","","audio-button-response","167","599078","0.0-10.0-2.67","https://mcdermottlab.mit.edu/mturk_stimuli/bjmedina/nhs-region-n_80/sequences/isi_16/len120/seq056_len120_s70_isi-1p0_0p0_16p0.json","10.55","true","4xrzcmuo5za","","3800","https://mcdermottlab.mit.edu/mturk_stimuli/bjmedina/nhs-region-n_80/mem_stim_44.wav","1","main","","","false","mem_stim_44.wav","false","-1","","0","false_alarm"
"","","","","","html-keyboard-response","168","599144","0.0-10.0-1.68","https://mcdermottlab.mit.edu/mturk_stimuli/bjmedina/nhs-region-n_80/sequences/isi_16/len120/seq056_len120_s70_isi-1p0_0p0_16p0.json","10.55","true","4xrzcmuo5za","","null","<span style=""font-size: 40px"">+</span>","null","","","","","","","","","",""
"","","","","","audio-button-response","169","605528","0.0-10.0-2.68","https://mcdermottlab.mit.edu/mturk_stimuli/bjmedina/nhs-region-n_80/sequences/isi_16/len120/seq056_len120_s70_isi-1p0_0p0_16p0.json","10.55","true","4xrzcmuo5za","","2880","https://mcdermottlab.mit.edu/mturk_stimuli/bjmedina/nhs-region-n_80/mem_stim_28.wav","0","main","","","false","mem_stim_28.wav","false","-1","","1","correct_rejection"
"","","","","","html-keyboard-response","170","605598","0.0-10.0-1.69","https://mcdermottlab.mit.edu/mturk_stimuli/bjmedina/nhs-region-n_80/sequences/isi_16/len120/seq056_len120_s70_isi-1p0_0p0_16p0.json","10.55","true","4xrzcmuo5za","","null","<span style=""font-size: 40px"">+</span>","null","","","","","","","","","",""
"","","","","","audio-button-response","171","609983","0.0-10.0-2.69","https://mcdermottlab.mit.edu/mturk_stimuli/bjmedina/nhs-region-n_80/sequences/isi_16/len120/seq056_len120_s70_isi-1p0_0p0_16p0.json","10.55","true","4xrzcmuo5za","","2531","https://mcdermottlab.mit.edu/mturk_stimuli/bjmedina/nhs-region-n_80/mem_stim_9.wav","0","main","","","false","mem_stim_9.wav","false","-1","","1","correct_rejection"
"","","","","","html-keyboard-response","172","610058","0.0-10.0-1.70","https://mcdermottlab.mit.edu/mturk_stimuli/bjmedina/nhs-region-n_80/sequences/isi_16/len120/seq056_len120_s70_isi-1p0_0p0_16p0.json","10.55","true","4xrzcmuo5za","","null","<span style=""font-size: 40px"">+</span>","null","","","","","","","","","",""
"","","","","","audio-button-response","173","614921","0.0-10.0-2.70","https://mcdermottlab.mit.edu/mturk_stimuli/bjmedina/nhs-region-n_80/sequences/isi_16/len120/seq056_len120_s70_isi-1p0_0p0_16p0.json","10.55","true","4xrzcmuo5za","","2779","https://mcdermottlab.mit.edu/mturk_stimuli/bjmedina/nhs-region-n_80/mem_stim_17.wav","2","main","","","false","mem_stim_17.wav","false","-1","","1","correct_rejection"
"","","","","","html-keyboard-response","174","614987","0.0-10.0-1.71","https://mcdermottlab.mit.edu/mturk_stimuli/bjmedina/nhs-region-n_80/sequences/isi_16/len120/seq056_len120_s70_isi-1p0_0p0_16p0.json","10.55","true","4xrzcmuo5za","","null","<span style=""font-size: 40px"">+</span>","null","","","","","","","","","",""
"","","","","","audio-button-response","175","617639","0.0-10.0-2.71","https://mcdermottlab.mit.edu/mturk_stimuli/bjmedina/nhs-region-n_80/sequences/isi_16/len120/seq056_len120_s70_isi-1p0_0p0_16p0.json","10.55","true","4xrzcmuo5za","","2659","https://mcdermottlab.mit.edu/mturk_stimuli/bjmedina/nhs-region-n_80/mem_stim_30.wav","2","main","","","true","mem_stim_30.wav","false","16","","0","miss"
"","","","","","html-keyboard-response","176","617707","0.0-10.0-1.72","https://mcdermottlab.mit.edu/mturk_stimuli/bjmedina/nhs-region-n_80/sequences/isi_16/len120/seq056_len120_s70_isi-1p0_0p0_16p0.json","10.55","true","4xrzcmuo5za","","null","<span style=""font-size: 40px"">+</span>","null","","","","","","","","","",""
"","","","","","audio-button-response","177","622721","0.0-10.0-2.72","https://mcdermottlab.mit.edu/mturk_stimuli/bjmedina/nhs-region-n_80/sequences/isi_16/len120/seq056_len120_s70_isi-1p0_0p0_16p0.json","10.55","true","4xrzcmuo5za","","2469","https://mcdermottlab.mit.edu/mturk_stimuli/bjmedina/nhs-region-n_80/mem_stim_29.wav","2","main","","","false","mem_stim_29.wav","false","-1","","1","correct_rejection"
"","","","","","html-keyboard-response","178","622794","0.0-10.0-1.73","https://mcdermottlab.mit.edu/mturk_stimuli/bjmedina/nhs-region-n_80/sequences/isi_16/len120/seq056_len120_s70_isi-1p0_0p0_16p0.json","10.55","true","4xrzcmuo5za","","null","<span style=""font-size: 40px"">+</span>","null","","","","","","","","","",""
"","","","","","audio-button-response","179","629344","0.0-10.0-2.73","https://mcdermottlab.mit.edu/mturk_stimuli/bjmedina/nhs-region-n_80/sequences/isi_16/len120/seq056_len120_s70_isi-1p0_0p0_16p0.json","10.55","true","4xrzcmuo5za","","3312","https://mcdermottlab.mit.edu/mturk_stimuli/bjmedina/nhs-region-n_80/mem_stim_33.wav","1","main","","","false","mem_stim_33.wav","false","-1","","0","false_alarm"
"","","","","","html-keyboard-response","180","629408","0.0-10.0-1.74","https://mcdermottlab.mit.edu/mturk_stimuli/bjmedina/nhs-region-n_80/sequences/isi_16/len120/seq056_len120_s70_isi-1p0_0p0_16p0.json","10.55","true","4xrzcmuo5za","","null","<span style=""font-size: 40px"">+</span>","null","","","","","","","","","",""
"","","","","","audio-button-response","181","631822","0.0-10.0-2.74","https://mcdermottlab.mit.edu/mturk_stimuli/bjmedina/nhs-region-n_80/sequences/isi_16/len120/seq056_len120_s70_isi-1p0_0p0_16p0.json","10.55","true","4xrzcmuo5za","","2421","https://mcdermottlab.mit.edu/mturk_stimuli/bjmedina/nhs-region-n_80/mem_stim_33.wav","3","main","","","true","mem_stim_33.wav","true","0","","0","miss"
"","","","","","html-keyboard-response","182","631889","0.0-10.0-1.75","https://mcdermottlab.mit.edu/mturk_stimuli/bjmedina/nhs-region-n_80/sequences/isi_16/len120/seq056_len120_s70_isi-1p0_0p0_16p0.json","10.55","true","4xrzcmuo5za","","null","<span style=""font-size: 40px"">+</span>","null","","","","","","","","","",""
"","","","","","audio-button-response","183","640568","0.0-10.0-2.75","https://mcdermottlab.mit.edu/mturk_stimuli/bjmedina/nhs-region-n_80/sequences/isi_16/len120/seq056_len120_s70_isi-1p0_0p0_16p0.json","10.55","true","4xrzcmuo5za","","3789","https://mcdermottlab.mit.edu/mturk_stimuli/bjmedina/nhs-region-n_80/mem_stim_36.wav","0","main","","","false","mem_stim_36.wav","false","-1","","1","correct_rejection"
"","","","","","html-keyboard-response","184","640633","0.0-10.0-1.76","https://mcdermottlab.mit.edu/mturk_stimuli/bjmedina/nhs-region-n_80/sequences/isi_16/len120/seq056_len120_s70_isi-1p0_0p0_16p0.json","10.55","true","4xrzcmuo5za","","null","<span style=""font-size: 40px"">+</span>","null","","","","","","","","","",""
"","","","","","audio-button-response","185","643095","0.0-10.0-2.76","https://mcdermottlab.mit.edu/mturk_stimuli/bjmedina/nhs-region-n_80/sequences/isi_16/len120/seq056_len120_s70_isi-1p0_0p0_16p0.json","10.55","true","4xrzcmuo5za","","2461","https://mcdermottlab.mit.edu/mturk_stimuli/bjmedina/nhs-region-n_80/mem_stim_56.wav","1","main","","","true","mem_stim_56.wav","false","16","","1","hit"
"","","","","","html-keyboard-response","186","643166","0.0-10.0-1.77","https://mcdermottlab.mit.edu/mturk_stimuli/bjmedina/nhs-region-n_80/sequences/isi_16/len120/seq056_len120_s70_isi-1p0_0p0_16p0.json","10.55","true","4xrzcmuo5za","","null","<span style=""font-size: 40px"">+</span>","null","","","","","","","","","",""
"","","","","","audio-button-response","187","649631","0.0-10.0-2.77","https://mcdermottlab.mit.edu/mturk_stimuli/bjmedina/nhs-region-n_80/sequences/isi_16/len120/seq056_len120_s70_isi-1p0_0p0_16p0.json","10.55","true","4xrzcmuo5za","","3168","https://mcdermottlab.mit.edu/mturk_stimuli/bjmedina/nhs-region-n_80/mem_stim_62.wav","1","main","","","false","mem_stim_62.wav","false","-1","","0","false_alarm"
"","","","","","html-keyboard-response","188","649701","0.0-10.0-1.78","https://mcdermottlab.mit.edu/mturk_stimuli/bjmedina/nhs-region-n_80/sequences/isi_16/len120/seq056_len120_s70_isi-1p0_0p0_16p0.json","10.55","true","4xrzcmuo5za","","null","<span style=""font-size: 40px"">+</span>","null","","","","","","","","","",""
"","","","","","audio-button-response","189","655496","0.0-10.0-2.78","https://mcdermottlab.mit.edu/mturk_stimuli/bjmedina/nhs-region-n_80/sequences/isi_16/len120/seq056_len120_s70_isi-1p0_0p0_16p0.json","10.55","true","4xrzcmuo5za","","2680","https://mcdermottlab.mit.edu/mturk_stimuli/bjmedina/nhs-region-n_80/mem_stim_50.wav","2","main","","","false","mem_stim_50.wav","false","-1","","1","correct_rejection"
"","","","","","html-keyboard-response","190","655563","0.0-10.0-1.79","https://mcdermottlab.mit.edu/mturk_stimuli/bjmedina/nhs-region-n_80/sequences/isi_16/len120/seq056_len120_s70_isi-1p0_0p0_16p0.json","10.55","true","4xrzcmuo5za","","null","<span style=""font-size: 40px"">+</span>","null","","","","","","","","","",""
"","","","","","audio-button-response","191","658337","0.0-10.0-2.79","https://mcdermottlab.mit.edu/mturk_stimuli/bjmedina/nhs-region-n_80/sequences/isi_16/len120/seq056_len120_s70_isi-1p0_0p0_16p0.json","10.55","true","4xrzcmuo5za","","2771","https://mcdermottlab.mit.edu/mturk_stimuli/bjmedina/nhs-region-n_80/mem_stim_40.wav","1","main","","","true","mem_stim_40.wav","false","16","","1","hit"
"","","","","","html-keyboard-response","192","658408","0.0-10.0-1.80","https://mcdermottlab.mit.edu/mturk_stimuli/bjmedina/nhs-region-n_80/sequences/isi_16/len120/seq056_len120_s70_isi-1p0_0p0_16p0.json","10.55","true","4xrzcmuo5za","","null","<span style=""font-size: 40px"">+</span>","null","","","","","","","","","",""
"","","","","","audio-button-response","193","661199","0.0-10.0-2.80","https://mcdermottlab.mit.edu/mturk_stimuli/bjmedina/nhs-region-n_80/sequences/isi_16/len120/seq056_len120_s70_isi-1p0_0p0_16p0.json","10.55","true","4xrzcmuo5za","","2800","https://mcdermottlab.mit.edu/mturk_stimuli/bjmedina/nhs-region-n_80/mem_stim_18.wav","0","main","","","true","mem_stim_18.wav","false","16","","0","miss"
"","","","","","html-keyboard-response","194","661274","0.0-10.0-1.81","https://mcdermottlab.mit.edu/mturk_stimuli/bjmedina/nhs-region-n_80/sequences/isi_16/len120/seq056_len120_s70_isi-1p0_0p0_16p0.json","10.55","true","4xrzcmuo5za","","null","<span style=""font-size: 40px"">+</span>","null","","","","","","","","","",""
"","","","","","audio-button-response","195","663968","0.0-10.0-2.81","https://mcdermottlab.mit.edu/mturk_stimuli/bjmedina/nhs-region-n_80/sequences/isi_16/len120/seq056_len120_s70_isi-1p0_0p0_16p0.json","10.55","true","4xrzcmuo5za","","2691","https://mcdermottlab.mit.edu/mturk_stimuli/bjmedina/nhs-region-n_80/mem_stim_64.wav","2","main","","","true","mem_stim_64.wav","false","16","","0","miss"
"","","","","","html-keyboard-response","196","664028","0.0-10.0-1.82","https://mcdermottlab.mit.edu/mturk_stimuli/bjmedina/nhs-region-n_80/sequences/isi_16/len120/seq056_len120_s70_isi-1p0_0p0_16p0.json","10.55","true","4xrzcmuo5za","","null","<span style=""font-size: 40px"">+</span>","null","","","","","","","","","",""
"","","","","","audio-button-response","197","666639","0.0-10.0-2.82","https://mcdermottlab.mit.edu/mturk_stimuli/bjmedina/nhs-region-n_80/sequences/isi_16/len120/seq056_len120_s70_isi-1p0_0p0_16p0.json","10.55","true","4xrzcmuo5za","","2619","https://mcdermottlab.mit.edu/mturk_stimuli/bjmedina/nhs-region-n_80/mem_stim_34.wav","2","main","","","true","mem_stim_34.wav","false","16","","0","miss"
"","","","","","html-keyboard-response","198","666705","0.0-10.0-1.83","https://mcdermottlab.mit.edu/mturk_stimuli/bjmedina/nhs-region-n_80/sequences/isi_16/len120/seq056_len120_s70_isi-1p0_0p0_16p0.json","10.55","true","4xrzcmuo5za","","null","<span style=""font-size: 40px"">+</span>","null","","","","","","","","","",""
"","","","","","audio-button-response","199","672767","0.0-10.0-2.83","https://mcdermottlab.mit.edu/mturk_stimuli/bjmedina/nhs-region-n_80/sequences/isi_16/len120/seq056_len120_s70_isi-1p0_0p0_16p0.json","10.55","true","4xrzcmuo5za","","2440","https://mcdermottlab.mit.edu/mturk_stimuli/bjmedina/nhs-region-n_80/mem_stim_67.wav","1","main","","","false","mem_stim_67.wav","false","-1","","0","false_alarm"
"","","","","","html-keyboard-response","200","672832","0.0-10.0-1.84","https://mcdermottlab.mit.edu/mturk_stimuli/bjmedina/nhs-region-n_80/sequences/isi_16/len120/seq056_len120_s70_isi-1p0_0p0_16p0.json","10.55","true","4xrzcmuo5za","","null","<span style=""font-size: 40px"">+</span>","null","","","","","","","","","",""
"","","","","","audio-button-response","201","677952","0.0-10.0-2.84","https://mcdermottlab.mit.edu/mturk_stimuli/bjmedina/nhs-region-n_80/sequences/isi_16/len120/seq056_len120_s70_isi-1p0_0p0_16p0.json","10.55","true","4xrzcmuo5za","","3019","https://mcdermottlab.mit.edu/mturk_stimuli/bjmedina/nhs-region-n_80/mem_stim_0.wav","0","main","","","false","mem_stim_0.wav","false","-1","","1","correct_rejection"
"","","","","","html-keyboard-response","202","678018","0.0-10.0-1.85","https://mcdermottlab.mit.edu/mturk_stimuli/bjmedina/nhs-region-n_80/sequences/isi_16/len120/seq056_len120_s70_isi-1p0_0p0_16p0.json","10.55","true","4xrzcmuo5za","","null","<span style=""font-size: 40px"">+</span>","null","","","","","","","","","",""
"","","","","","audio-button-response","203","680607","0.0-10.0-2.85","https://mcdermottlab.mit.edu/mturk_stimuli/bjmedina/nhs-region-n_80/sequences/isi_16/len120/seq056_len120_s70_isi-1p0_0p0_16p0.json","10.55","true","4xrzcmuo5za","","2589","https://mcdermottlab.mit.edu/mturk_stimuli/bjmedina/nhs-region-n_80/mem_stim_28.wav","0","main","","","true","mem_stim_28.wav","false","16","","0","miss"
"","","","","","html-keyboard-response","204","680678","0.0-10.0-1.86","https://mcdermottlab.mit.edu/mturk_stimuli/bjmedina/nhs-region-n_80/sequences/isi_16/len120/seq056_len120_s70_isi-1p0_0p0_16p0.json","10.55","true","4xrzcmuo5za","","null","<span style=""font-size: 40px"">+</span>","null","","","","","","","","","",""
"","","","","","audio-button-response","205","683199","0.0-10.0-2.86","https://mcdermottlab.mit.edu/mturk_stimuli/bjmedina/nhs-region-n_80/sequences/isi_16/len120/seq056_len120_s70_isi-1p0_0p0_16p0.json","10.55","true","4xrzcmuo5za","","2531","https://mcdermottlab.mit.edu/mturk_stimuli/bjmedina/nhs-region-n_80/mem_stim_9.wav","0","main","","","true","mem_stim_9.wav","false","16","","0","miss"
"","","","","","html-keyboard-response","206","683267","0.0-10.0-1.87","https://mcdermottlab.mit.edu/mturk_stimuli/bjmedina/nhs-region-n_80/sequences/isi_16/len120/seq056_len120_s70_isi-1p0_0p0_16p0.json","10.55","true","4xrzcmuo5za","","null","<span style=""font-size: 40px"">+</span>","null","","","","","","","","","",""
"","","","","","audio-button-response","207","688391","0.0-10.0-2.87","https://mcdermottlab.mit.edu/mturk_stimuli/bjmedina/nhs-region-n_80/sequences/isi_16/len120/seq056_len120_s70_isi-1p0_0p0_16p0.json","10.55","true","4xrzcmuo5za","","3608","https://mcdermottlab.mit.edu/mturk_stimuli/bjmedina/nhs-region-n_80/mem_stim_76.wav","2","main","","","false","mem_stim_76.wav","false","-1","","1","correct_rejection"
"","","","","","html-keyboard-response","208","688461","0.0-10.0-1.88","https://mcdermottlab.mit.edu/mturk_stimuli/bjmedina/nhs-region-n_80/sequences/isi_16/len120/seq056_len120_s70_isi-1p0_0p0_16p0.json","10.55","true","4xrzcmuo5za","","null","<span style=""font-size: 40px"">+</span>","null","","","","","","","","","",""
"","","","","","audio-button-response","209","696263","0.0-10.0-2.88","https://mcdermottlab.mit.edu/mturk_stimuli/bjmedina/nhs-region-n_80/sequences/isi_16/len120/seq056_len120_s70_isi-1p0_0p0_16p0.json","10.55","true","4xrzcmuo5za","","4040","https://mcdermottlab.mit.edu/mturk_stimuli/bjmedina/nhs-region-n_80/mem_stim_47.wav","1","main","","","false","mem_stim_47.wav","false","-1","","0","false_alarm"
"","","","","","html-keyboard-response","210","696348","0.0-10.0-1.89","https://mcdermottlab.mit.edu/mturk_stimuli/bjmedina/nhs-region-n_80/sequences/isi_16/len120/seq056_len120_s70_isi-1p0_0p0_16p0.json","10.55","true","4xrzcmuo5za","","null","<span style=""font-size: 40px"">+</span>","null","","","","","","","","","",""
"","","","","","audio-button-response","211","701399","0.0-10.0-2.89","https://mcdermottlab.mit.edu/mturk_stimuli/bjmedina/nhs-region-n_80/sequences/isi_16/len120/seq056_len120_s70_isi-1p0_0p0_16p0.json","10.55","true","4xrzcmuo5za","","2840","https://mcdermottlab.mit.edu/mturk_stimuli/bjmedina/nhs-region-n_80/mem_stim_42.wav","0","main","","","false","mem_stim_42.wav","false","-1","","1","correct_rejection"
"","","","","","html-keyboard-response","212","701465","0.0-10.0-1.90","https://mcdermottlab.mit.edu/mturk_stimuli/bjmedina/nhs-region-n_80/sequences/isi_16/len120/seq056_len120_s70_isi-1p0_0p0_16p0.json","10.55","true","4xrzcmuo5za","","null","<span style=""font-size: 40px"">+</span>","null","","","","","","","","","",""
"","","","","","audio-button-response","213","703847","0.0-10.0-2.90","https://mcdermottlab.mit.edu/mturk_stimuli/bjmedina/nhs-region-n_80/sequences/isi_16/len120/seq056_len120_s70_isi-1p0_0p0_16p0.json","10.55","true","4xrzcmuo5za","","2379","https://mcdermottlab.mit.edu/mturk_stimuli/bjmedina/nhs-region-n_80/mem_stim_42.wav","3","main","","","true","mem_stim_42.wav","true","0","","0","miss"
"","","","","","html-keyboard-response","214","703916","0.0-10.0-1.91","https://mcdermottlab.mit.edu/mturk_stimuli/bjmedina/nhs-region-n_80/sequences/isi_16/len120/seq056_len120_s70_isi-1p0_0p0_16p0.json","10.55","true","4xrzcmuo5za","","null","<span style=""font-size: 40px"">+</span>","null","","","","","","","","","",""
"","","","","","audio-button-response","215","708983","0.0-10.0-2.91","https://mcdermottlab.mit.edu/mturk_stimuli/bjmedina/nhs-region-n_80/sequences/isi_16/len120/seq056_len120_s70_isi-1p0_0p0_16p0.json","10.55","true","4xrzcmuo5za","","2440","https://mcdermottlab.mit.edu/mturk_stimuli/bjmedina/nhs-region-n_80/mem_stim_58.wav","0","main","","","false","mem_stim_58.wav","false","-1","","1","correct_rejection"
"","","","","","html-keyboard-response","216","709058","0.0-10.0-1.92","https://mcdermottlab.mit.edu/mturk_stimuli/bjmedina/nhs-region-n_80/sequences/isi_16/len120/seq056_len120_s70_isi-1p0_0p0_16p0.json","10.55","true","4xrzcmuo5za","","null","<span style=""font-size: 40px"">+</span>","null","","","","","","","","","",""
"","","","","","audio-button-response","217","716824","0.0-10.0-2.92","https://mcdermottlab.mit.edu/mturk_stimuli/bjmedina/nhs-region-n_80/sequences/isi_16/len120/seq056_len120_s70_isi-1p0_0p0_16p0.json","10.55","true","4xrzcmuo5za","","2840","https://mcdermottlab.mit.edu/mturk_stimuli/bjmedina/nhs-region-n_80/mem_stim_7.wav","1","main","","","false","mem_stim_7.wav","false","-1","","0","false_alarm"
"","","","","","html-keyboard-response","218","716888","0.0-10.0-1.93","https://mcdermottlab.mit.edu/mturk_stimuli/bjmedina/nhs-region-n_80/sequences/isi_16/len120/seq056_len120_s70_isi-1p0_0p0_16p0.json","10.55","true","4xrzcmuo5za","","null","<span style=""font-size: 40px"">+</span>","null","","","","","","","","","",""
"","","","","","audio-button-response","219","720912","0.0-10.0-2.93","https://mcdermottlab.mit.edu/mturk_stimuli/bjmedina/nhs-region-n_80/sequences/isi_16/len120/seq056_len120_s70_isi-1p0_0p0_16p0.json","10.55","true","4xrzcmuo5za","","2459","https://mcdermottlab.mit.edu/mturk_stimuli/bjmedina/nhs-region-n_80/mem_stim_6.wav","1","main","","","false","mem_stim_6.wav","false","-1","","0","false_alarm"
"","","","","","html-keyboard-response","220","720977","0.0-10.0-1.94","https://mcdermottlab.mit.edu/mturk_stimuli/bjmedina/nhs-region-n_80/sequences/isi_16/len120/seq056_len120_s70_isi-1p0_0p0_16p0.json","10.55","true","4xrzcmuo5za","","null","<span style=""font-size: 40px"">+</span>","null","","","","","","","","","",""
"","","","","","audio-button-response","221","727015","0.0-10.0-2.94","https://mcdermottlab.mit.edu/mturk_stimuli/bjmedina/nhs-region-n_80/sequences/isi_16/len120/seq056_len120_s70_isi-1p0_0p0_16p0.json","10.55","true","4xrzcmuo5za","","2440","https://mcdermottlab.mit.edu/mturk_stimuli/bjmedina/nhs-region-n_80/mem_stim_25.wav","1","main","","","false","mem_stim_25.wav","false","-1","","0","false_alarm"
"","","","","","html-keyboard-response","222","727082","0.0-10.0-1.95","https://mcdermottlab.mit.edu/mturk_stimuli/bjmedina/nhs-region-n_80/sequences/isi_16/len120/seq056_len120_s70_isi-1p0_0p0_16p0.json","10.55","true","4xrzcmuo5za","","null","<span style=""font-size: 40px"">+</span>","null","","","","","","","","","",""
"","","","","","audio-button-response","223","729431","0.0-10.0-2.95","https://mcdermottlab.mit.edu/mturk_stimuli/bjmedina/nhs-region-n_80/sequences/isi_16/len120/seq056_len120_s70_isi-1p0_0p0_16p0.json","10.55","true","4xrzcmuo5za","","2349","https://mcdermottlab.mit.edu/mturk_stimuli/bjmedina/nhs-region-n_80/mem_stim_25.wav","3","main","","","true","mem_stim_25.wav","true","0","","0","miss"
"","","","","","html-keyboard-response","224","729507","0.0-10.0-1.96","https://mcdermottlab.mit.edu/mturk_stimuli/bjmedina/nhs-region-n_80/sequences/isi_16/len120/seq056_len120_s70_isi-1p0_0p0_16p0.json","10.55","true","4xrzcmuo5za","","null","<span style=""font-size: 40px"">+</span>","null","","","","","","","","","",""
"","","","","","audio-button-response","225","733607","0.0-10.0-2.96","https://mcdermottlab.mit.edu/mturk_stimuli/bjmedina/nhs-region-n_80/sequences/isi_16/len120/seq056_len120_s70_isi-1p0_0p0_16p0.json","10.55","true","4xrzcmuo5za","","2611","https://mcdermottlab.mit.edu/mturk_stimuli/bjmedina/nhs-region-n_80/mem_stim_61.wav","1","main","","","false","mem_stim_61.wav","false","-1","","0","false_alarm"
"","","","","","html-keyboard-response","226","733671","0.0-10.0-1.97","https://mcdermottlab.mit.edu/mturk_stimuli/bjmedina/nhs-region-n_80/sequences/isi_16/len120/seq056_len120_s70_isi-1p0_0p0_16p0.json","10.55","true","4xrzcmuo5za","","null","<span style=""font-size: 40px"">+</span>","null","","","","","","","","","",""
"","","","","","audio-button-response","227","737912","0.0-10.0-2.97","https://mcdermottlab.mit.edu/mturk_stimuli/bjmedina/nhs-region-n_80/sequences/isi_16/len120/seq056_len120_s70_isi-1p0_0p0_16p0.json","10.55","true","4xrzcmuo5za","","3299","https://mcdermottlab.mit.edu/mturk_stimuli/bjmedina/nhs-region-n_80/mem_stim_72.wav","1","main","","","false","mem_stim_72.wav","false","-1","","0","false_alarm"
"","","","","","html-keyboard-response","228","737976","0.0-10.0-1.98","https://mcdermottlab.mit.edu/mturk_stimuli/bjmedina/nhs-region-n_80/sequences/isi_16/len120/seq056_len120_s70_isi-1p0_0p0_16p0.json","10.55","true","4xrzcmuo5za","","null","<span style=""font-size: 40px"">+</span>","null","","","","","","","","","",""
"","","","","","audio-button-response","229","740311","0.0-10.0-2.98","https://mcdermottlab.mit.edu/mturk_stimuli/bjmedina/nhs-region-n_80/sequences/isi_16/len120/seq056_len120_s70_isi-1p0_0p0_16p0.json","10.55","true","4xrzcmuo5za","","2339","https://mcdermottlab.mit.edu/mturk_stimuli/bjmedina/nhs-region-n_80/mem_stim_72.wav","3","main","","","true","mem_stim_72.wav","true","0","","0","miss"
"","","","","","html-keyboard-response","230","740378","0.0-10.0-1.99","https://mcdermottlab.mit.edu/mturk_stimuli/bjmedina/nhs-region-n_80/sequences/isi_16/len120/seq056_len120_s70_isi-1p0_0p0_16p0.json","10.55","true","4xrzcmuo5za","","null","<span style=""font-size: 40px"">+</span>","null","","","","","","","","","",""
"","","","","","audio-button-response","231","746703","0.0-10.0-2.99","https://mcdermottlab.mit.edu/mturk_stimuli/bjmedina/nhs-region-n_80/sequences/isi_16/len120/seq056_len120_s70_isi-1p0_0p0_16p0.json","10.55","true","4xrzcmuo5za","","2952","https://mcdermottlab.mit.edu/mturk_stimuli/bjmedina/nhs-region-n_80/mem_stim_12.wav","2","main","","","false","mem_stim_12.wav","false","-1","","1","correct_rejection"
"","","","","","html-keyboard-response","232","746778","0.0-10.0-1.100","https://mcdermottlab.mit.edu/mturk_stimuli/bjmedina/nhs-region-n_80/sequences/isi_16/len120/seq056_len120_s70_isi-1p0_0p0_16p0.json","10.55","true","4xrzcmuo5za","","null","<span style=""font-size: 40px"">+</span>","null","","","","","","","","","",""
"","","","","","audio-button-response","233","749207","0.0-10.0-2.100","https://mcdermottlab.mit.edu/mturk_stimuli/bjmedina/nhs-region-n_80/sequences/isi_16/len120/seq056_len120_s70_isi-1p0_0p0_16p0.json","10.55","true","4xrzcmuo5za","","2429","https://mcdermottlab.mit.edu/mturk_stimuli/bjmedina/nhs-region-n_80/mem_stim_67.wav","2","main","","","true","mem_stim_67.wav","false","16","","0","miss"
"","","","","","html-keyboard-response","234","749274","0.0-10.0-1.101","https://mcdermottlab.mit.edu/mturk_stimuli/bjmedina/nhs-region-n_80/sequences/isi_16/len120/seq056_len120_s70_isi-1p0_0p0_16p0.json","10.55","true","4xrzcmuo5za","","null","<span style=""font-size: 40px"">+</span>","null","","","","","","","","","",""
"","","","","","audio-button-response","235","757328","0.0-10.0-2.101","https://mcdermottlab.mit.edu/mturk_stimuli/bjmedina/nhs-region-n_80/sequences/isi_16/len120/seq056_len120_s70_isi-1p0_0p0_16p0.json","10.55","true","4xrzcmuo5za","","4309","https://mcdermottlab.mit.edu/mturk_stimuli/bjmedina/nhs-region-n_80/mem_stim_22.wav","2","main","","","false","mem_stim_22.wav","false","-1","","1","correct_rejection"
"","","","","","html-keyboard-response","236","757397","0.0-10.0-1.102","https://mcdermottlab.mit.edu/mturk_stimuli/bjmedina/nhs-region-n_80/sequences/isi_16/len120/seq056_len120_s70_isi-1p0_0p0_16p0.json","10.55","true","4xrzcmuo5za","","null","<span style=""font-size: 40px"">+</span>","null","","","","","","","","","",""
"","","","","","audio-button-response","237","762111","0.0-10.0-2.102","https://mcdermottlab.mit.edu/mturk_stimuli/bjmedina/nhs-region-n_80/sequences/isi_16/len120/seq056_len120_s70_isi-1p0_0p0_16p0.json","10.55","true","4xrzcmuo5za","","2699","https://mcdermottlab.mit.edu/mturk_stimuli/bjmedina/nhs-region-n_80/mem_stim_24.wav","0","main","","","false","mem_stim_24.wav","false","-1","","1","correct_rejection"
"","","","","","html-keyboard-response","238","762180","0.0-10.0-1.103","https://mcdermottlab.mit.edu/mturk_stimuli/bjmedina/nhs-region-n_80/sequences/isi_16/len120/seq056_len120_s70_isi-1p0_0p0_16p0.json","10.55","true","4xrzcmuo5za","","null","<span style=""font-size: 40px"">+</span>","null","","","","","","","","","",""
"","","","","","audio-button-response","239","765951","0.0-10.0-2.103","https://mcdermottlab.mit.edu/mturk_stimuli/bjmedina/nhs-region-n_80/sequences/isi_16/len120/seq056_len120_s70_isi-1p0_0p0_16p0.json","10.55","true","4xrzcmuo5za","","2659","https://mcdermottlab.mit.edu/mturk_stimuli/bjmedina/nhs-region-n_80/mem_stim_26.wav","1","main","","","false","mem_stim_26.wav","false","-1","","0","false_alarm"
"","","","","","html-keyboard-response","240","766013","0.0-10.0-1.104","https://mcdermottlab.mit.edu/mturk_stimuli/bjmedina/nhs-region-n_80/sequences/isi_16/len120/seq056_len120_s70_isi-1p0_0p0_16p0.json","10.55","true","4xrzcmuo5za","","null","<span style=""font-size: 40px"">+</span>","null","","","","","","","","","",""
"","","","","","audio-button-response","241","770105","0.0-10.0-2.104","https://mcdermottlab.mit.edu/mturk_stimuli/bjmedina/nhs-region-n_80/sequences/isi_16/len120/seq056_len120_s70_isi-1p0_0p0_16p0.json","10.55","true","4xrzcmuo5za","","2851","https://mcdermottlab.mit.edu/mturk_stimuli/bjmedina/nhs-region-n_80/mem_stim_15.wav","2","main","","","false","mem_stim_15.wav","false","-1","","1","correct_rejection"
"","","","","","html-keyboard-response","242","770167","0.0-10.0-1.105","https://mcdermottlab.mit.edu/mturk_stimuli/bjmedina/nhs-region-n_80/sequences/isi_16/len120/seq056_len120_s70_isi-1p0_0p0_16p0.json","10.55","true","4xrzcmuo5za","","null","<span style=""font-size: 40px"">+</span>","null","","","","","","","","","",""
"","","","","","audio-button-response","243","774479","0.0-10.0-2.105","https://mcdermottlab.mit.edu/mturk_stimuli/bjmedina/nhs-region-n_80/sequences/isi_16/len120/seq056_len120_s70_isi-1p0_0p0_16p0.json","10.55","true","4xrzcmuo5za","","2840","https://mcdermottlab.mit.edu/mturk_stimuli/bjmedina/nhs-region-n_80/mem_stim_65.wav","1","main","","","false","mem_stim_65.wav","false","-1","","0","false_alarm"
"","","","","","html-keyboard-response","244","774542","0.0-10.0-1.106","https://mcdermottlab.mit.edu/mturk_stimuli/bjmedina/nhs-region-n_80/sequences/isi_16/len120/seq056_len120_s70_isi-1p0_0p0_16p0.json","10.55","true","4xrzcmuo5za","","null","<span style=""font-size: 40px"">+</span>","null","","","","","","","","","",""
"","","","","","audio-button-response","245","778215","0.0-10.0-2.106","https://mcdermottlab.mit.edu/mturk_stimuli/bjmedina/nhs-region-n_80/sequences/isi_16/len120/seq056_len120_s70_isi-1p0_0p0_16p0.json","10.55","true","4xrzcmuo5za","","2709","https://mcdermottlab.mit.edu/mturk_stimuli/bjmedina/nhs-region-n_80/mem_stim_10.wav","1","main","","","false","mem_stim_10.wav","false","-1","","0","false_alarm"
"","","","","","html-keyboard-response","246","778283","0.0-10.0-1.107","https://mcdermottlab.mit.edu/mturk_stimuli/bjmedina/nhs-region-n_80/sequences/isi_16/len120/seq056_len120_s70_isi-1p0_0p0_16p0.json","10.55","true","4xrzcmuo5za","","null","<span style=""font-size: 40px"">+</span>","null","","","","","","","","","",""
"","","","","","audio-button-response","247","782559","0.0-10.0-2.107","https://mcdermottlab.mit.edu/mturk_stimuli/bjmedina/nhs-region-n_80/sequences/isi_16/len120/seq056_len120_s70_isi-1p0_0p0_16p0.json","10.55","true","4xrzcmuo5za","","2440","https://mcdermottlab.mit.edu/mturk_stimuli/bjmedina/nhs-region-n_80/mem_stim_52.wav","1","main","","","false","mem_stim_52.wav","false","-1","","0","false_alarm"
"","","","","","html-keyboard-response","248","782625","0.0-10.0-1.108","https://mcdermottlab.mit.edu/mturk_stimuli/bjmedina/nhs-region-n_80/sequences/isi_16/len120/seq056_len120_s70_isi-1p0_0p0_16p0.json","10.55","true","4xrzcmuo5za","","null","<span style=""font-size: 40px"">+</span>","null","","","","","","","","","",""
"","","","","","audio-button-response","249","789522","0.0-10.0-2.108","https://mcdermottlab.mit.edu/mturk_stimuli/bjmedina/nhs-region-n_80/sequences/isi_16/len120/seq056_len120_s70_isi-1p0_0p0_16p0.json","10.55","true","4xrzcmuo5za","","3979","https://mcdermottlab.mit.edu/mturk_stimuli/bjmedina/nhs-region-n_80/mem_stim_19.wav","2","main","","","false","mem_stim_19.wav","false","-1","","1","correct_rejection"
"","","","","","html-keyboard-response","250","789592","0.0-10.0-1.109","https://mcdermottlab.mit.edu/mturk_stimuli/bjmedina/nhs-region-n_80/sequences/isi_16/len120/seq056_len120_s70_isi-1p0_0p0_16p0.json","10.55","true","4xrzcmuo5za","","null","<span style=""font-size: 40px"">+</span>","null","","","","","","","","","",""
"","","","","","audio-button-response","251","792168","0.0-10.0-2.109","https://mcdermottlab.mit.edu/mturk_stimuli/bjmedina/nhs-region-n_80/sequences/isi_16/len120/seq056_len120_s70_isi-1p0_0p0_16p0.json","10.55","true","4xrzcmuo5za","","2571","https://mcdermottlab.mit.edu/mturk_stimuli/bjmedina/nhs-region-n_80/mem_stim_7.wav","2","main","","","true","mem_stim_7.wav","false","16","","0","miss"
"","","","","","html-keyboard-response","252","792237","0.0-10.0-1.110","https://mcdermottlab.mit.edu/mturk_stimuli/bjmedina/nhs-region-n_80/sequences/isi_16/len120/seq056_len120_s70_isi-1p0_0p0_16p0.json","10.55","true","4xrzcmuo5za","","null","<span style=""font-size: 40px"">+</span>","null","","","","","","","","","",""
"","","","","","audio-button-response","253","794999","0.0-10.0-2.110","https://mcdermottlab.mit.edu/mturk_stimuli/bjmedina/nhs-region-n_80/sequences/isi_16/len120/seq056_len120_s70_isi-1p0_0p0_16p0.json","10.55","true","4xrzcmuo5za","","2771","https://mcdermottlab.mit.edu/mturk_stimuli/bjmedina/nhs-region-n_80/mem_stim_6.wav","2","main","","","true","mem_stim_6.wav","false","16","","0","miss"
"","","","","","html-keyboard-response","254","795072","0.0-10.0-1.111","https://mcdermottlab.mit.edu/mturk_stimuli/bjmedina/nhs-region-n_80/sequences/isi_16/len120/seq056_len120_s70_isi-1p0_0p0_16p0.json","10.55","true","4xrzcmuo5za","","null","<span style=""font-size: 40px"">+</span>","null","","","","","","","","","",""
"","","","","","audio-button-response","255","800583","0.0-10.0-2.111","https://mcdermottlab.mit.edu/mturk_stimuli/bjmedina/nhs-region-n_80/sequences/isi_16/len120/seq056_len120_s70_isi-1p0_0p0_16p0.json","10.55","true","4xrzcmuo5za","","2651","https://mcdermottlab.mit.edu/mturk_stimuli/bjmedina/nhs-region-n_80/mem_stim_3.wav","0","main","","","false","mem_stim_3.wav","false","-1","","1","correct_rejection"
"","","","","","html-keyboard-response","256","800648","0.0-10.0-1.112","https://mcdermottlab.mit.edu/mturk_stimuli/bjmedina/nhs-region-n_80/sequences/isi_16/len120/seq056_len120_s70_isi-1p0_0p0_16p0.json","10.55","true","4xrzcmuo5za","","null","<span style=""font-size: 40px"">+</span>","null","","","","","","","","","",""
"","","","","","audio-button-response","257","803047","0.0-10.0-2.112","https://mcdermottlab.mit.edu/mturk_stimuli/bjmedina/nhs-region-n_80/sequences/isi_16/len120/seq056_len120_s70_isi-1p0_0p0_16p0.json","10.55","true","4xrzcmuo5za","","2400","https://mcdermottlab.mit.edu/mturk_stimuli/bjmedina/nhs-region-n_80/mem_stim_3.wav","3","main","","","true","mem_stim_3.wav","true","0","","0","miss"
"","","","","","html-keyboard-response","258","803118","0.0-10.0-1.113","https://mcdermottlab.mit.edu/mturk_stimuli/bjmedina/nhs-region-n_80/sequences/isi_16/len120/seq056_len120_s70_isi-1p0_0p0_16p0.json","10.55","true","4xrzcmuo5za","","null","<span style=""font-size: 40px"">+</span>","null","","","","","","","","","",""
"","","","","","audio-button-response","259","811136","0.0-10.0-2.113","https://mcdermottlab.mit.edu/mturk_stimuli/bjmedina/nhs-region-n_80/sequences/isi_16/len120/seq056_len120_s70_isi-1p0_0p0_16p0.json","10.55","true","4xrzcmuo5za","","3469","https://mcdermottlab.mit.edu/mturk_stimuli/bjmedina/nhs-region-n_80/mem_stim_57.wav","1","main","","","false","mem_stim_57.wav","false","-1","","0","false_alarm"
"","","","","","html-keyboard-response","260","811208","0.0-10.0-1.114","https://mcdermottlab.mit.edu/mturk_stimuli/bjmedina/nhs-region-n_80/sequences/isi_16/len120/seq056_len120_s70_isi-1p0_0p0_16p0.json","10.55","true","4xrzcmuo5za","","null","<span style=""font-size: 40px"">+</span>","null","","","","","","","","","",""
"","","","","","audio-button-response","261","816967","0.0-10.0-2.114","https://mcdermottlab.mit.edu/mturk_stimuli/bjmedina/nhs-region-n_80/sequences/isi_16/len120/seq056_len120_s70_isi-1p0_0p0_16p0.json","10.55","true","4xrzcmuo5za","","2651","https://mcdermottlab.mit.edu/mturk_stimuli/bjmedina/nhs-region-n_80/mem_stim_27.wav","1","main","","","false","mem_stim_27.wav","false","-1","","0","false_alarm"
"","","","","","html-keyboard-response","262","817028","0.0-10.0-1.115","https://mcdermottlab.mit.edu/mturk_stimuli/bjmedina/nhs-region-n_80/sequences/isi_16/len120/seq056_len120_s70_isi-1p0_0p0_16p0.json","10.55","true","4xrzcmuo5za","","null","<span style=""font-size: 40px"">+</span>","null","","","","","","","","","",""
"","","","","","audio-button-response","263","821095","0.0-10.0-2.115","https://mcdermottlab.mit.edu/mturk_stimuli/bjmedina/nhs-region-n_80/sequences/isi_16/len120/seq056_len120_s70_isi-1p0_0p0_16p0.json","10.55","true","4xrzcmuo5za","","2651","https://mcdermottlab.mit.edu/mturk_stimuli/bjmedina/nhs-region-n_80/mem_stim_78.wav","1","main","","","false","mem_stim_78.wav","false","-1","","0","false_alarm"
"","","","","","html-keyboard-response","264","821168","0.0-10.0-1.116","https://mcdermottlab.mit.edu/mturk_stimuli/bjmedina/nhs-region-n_80/sequences/isi_16/len120/seq056_len120_s70_isi-1p0_0p0_16p0.json","10.55","true","4xrzcmuo5za","","null","<span style=""font-size: 40px"">+</span>","null","","","","","","","","","",""
"","","","","","audio-button-response","265","825322","0.0-10.0-2.116","https://mcdermottlab.mit.edu/mturk_stimuli/bjmedina/nhs-region-n_80/sequences/isi_16/len120/seq056_len120_s70_isi-1p0_0p0_16p0.json","10.55","true","4xrzcmuo5za","","2931","https://mcdermottlab.mit.edu/mturk_stimuli/bjmedina/nhs-region-n_80/mem_stim_38.wav","0","main","","","false","mem_stim_38.wav","false","-1","","1","correct_rejection"
"","","","","","html-keyboard-response","266","825383","0.0-10.0-1.117","https://mcdermottlab.mit.edu/mturk_stimuli/bjmedina/nhs-region-n_80/sequences/isi_16/len120/seq056_len120_s70_isi-1p0_0p0_16p0.json","10.55","true","4xrzcmuo5za","","null","<span style=""font-size: 40px"">+</span>","null","","","","","","","","","",""
"","","","","","audio-button-response","267","827760","0.0-10.0-2.117","https://mcdermottlab.mit.edu/mturk_stimuli/bjmedina/nhs-region-n_80/sequences/isi_16/len120/seq056_len120_s70_isi-1p0_0p0_16p0.json","10.55","true","4xrzcmuo5za","","2379","https://mcdermottlab.mit.edu/mturk_stimuli/bjmedina/nhs-region-n_80/mem_stim_38.wav","3","main","","","true","mem_stim_38.wav","true","0","","0","miss"
"","","","","","html-keyboard-response","268","827828","0.0-10.0-1.118","https://mcdermottlab.mit.edu/mturk_stimuli/bjmedina/nhs-region-n_80/sequences/isi_16/len120/seq056_len120_s70_isi-1p0_0p0_16p0.json","10.55","true","4xrzcmuo5za","","null","<span style=""font-size: 40px"">+</span>","null","","","","","","","","","",""
"","","","","","audio-button-response","269","830608","0.0-10.0-2.118","https://mcdermottlab.mit.edu/mturk_stimuli/bjmedina/nhs-region-n_80/sequences/isi_16/len120/seq056_len120_s70_isi-1p0_0p0_16p0.json","10.55","true","4xrzcmuo5za","","2779","https://mcdermottlab.mit.edu/mturk_stimuli/bjmedina/nhs-region-n_80/mem_stim_22.wav","1","main","","","true","mem_stim_22.wav","false","16","","1","hit"
"","","","","","html-keyboard-response","270","830677","0.0-10.0-1.119","https://mcdermottlab.mit.edu/mturk_stimuli/bjmedina/nhs-region-n_80/sequences/isi_16/len120/seq056_len120_s70_isi-1p0_0p0_16p0.json","10.55","true","4xrzcmuo5za","","null","<span style=""font-size: 40px"">+</span>","null","","","","","","","","","",""
"","","","","","audio-button-response","271","833855","0.0-10.0-2.119","https://mcdermottlab.mit.edu/mturk_stimuli/bjmedina/nhs-region-n_80/sequences/isi_16/len120/seq056_len120_s70_isi-1p0_0p0_16p0.json","10.55","true","4xrzcmuo5za","","3181","https://mcdermottlab.mit.edu/mturk_stimuli/bjmedina/nhs-region-n_80/mem_stim_24.wav","0","main","","","true","mem_stim_24.wav","false","16","","0","miss"
"","","","","","survey-text","272","849033","0.0-11.0","https://mcdermottlab.mit.edu/mturk_stimuli/bjmedina/nhs-region-n_80/sequences/isi_16/len120/seq056_len120_s70_isi-1p0_0p0_16p0.json","10.55","true","4xrzcmuo5za","","15120","","{""Q0"":""its was fast paced and good fun, thanks""}","","","","","","","","","",""
