"success","timeout","failed_images","failed_audio","failed_video","trial_type","trial_index","time_elapsed","internal_node_id","sequence_file","pay","passed_hc","completion_code","view_history","rt","stimulus","response","stim_type","hc_answer","correct_hc","repeat","yt_id","catch","isi","type","is_correct","response_type"
"true","false","[]","[]","[]","preload","0","156","0.0-0.0","https://mcdermottlab.mit.edu/mturk_stimuli/bjmedina/nhs-region-n_80/sequences/isi_16/len120/seq063_len120_s70_isi-1p0_0p0_16p0.json","10.95","true","tx5twdeae8g","","","","","","","","","","","","","",""
"","","","","","instructions","1","3970","0.0-1.0","https://mcdermottlab.mit.edu/mturk_stimuli/bjmedina/nhs-region-n_80/sequences/isi_16/len120/seq063_len120_s70_isi-1p0_0p0_16p0.json","10.95","true","tx5twdeae8g","[{""page_index"":0,""viewing_time"":3813}]","3813","","","","","","","","","","","",""
"","","","","","instructions","2","20312","0.0-2.0","https://mcdermottlab.mit.edu/mturk_stimuli/bjmedina/nhs-region-n_80/sequences/isi_16/len120/seq063_len120_s70_isi-1p0_0p0_16p0.json","10.95","true","tx5twdeae8g","[{""page_index"":0,""viewing_time"":16347}]","16347","","","","","","","","","","","",""
"","","","","","audio-button-response","3","51382","0.0-3.0-0.0","https://mcdermottlab.mit.edu/mturk_stimuli/bjmedina/nhs-region-n_80/sequences/isi_16/len120/seq063_len120_s70_isi-1p0_0p0_16p0.json","10.95","true","tx5twdeae8g","","30661","https://mcdermottlab.mit.edu/bjmedina/experiments/mem_exp_v01/assets/noise_calib_stim.wav","0","","","","","","","","","",""
"","","","","","audio-button-response","4","60464","0.0-3.1-0.1","https://mcdermottlab.mit.edu/mturk_stimuli/bjmedina/nhs-region-n_80/sequences/isi_16/len120/seq063_len120_s70_isi-1p0_0p0_16p0.json","10.95","true","tx5twdeae8g","","9077","https://mcdermottlab.mit.edu/bjmedina/experiments/mem_exp_v01/assets/noise_calib_stim.wav","0","","","","","","","","","",""
"","","","","","audio-button-response","5","63465","0.0-3.2-0.2","https://mcdermottlab.mit.edu/mturk_stimuli/bjmedina/nhs-region-n_80/sequences/isi_16/len120/seq063_len120_s70_isi-1p0_0p0_16p0.json","10.95","true","tx5twdeae8g","","2997","https://mcdermottlab.mit.edu/bjmedina/experiments/mem_exp_v01/assets/noise_calib_stim.wav","0","","","","","","","","","",""
"","","","","","audio-button-response","6","65329","0.0-3.3-0.3","https://mcdermottlab.mit.edu/mturk_stimuli/bjmedina/nhs-region-n_80/sequences/isi_16/len120/seq063_len120_s70_isi-1p0_0p0_16p0.json","10.95","true","tx5twdeae8g","","1861","https://mcdermottlab.mit.edu/bjmedina/experiments/mem_exp_v01/assets/noise_calib_stim.wav","0","","","","","","","","","",""
"","","","","","audio-button-response","7","68113","0.0-3.4-0.4","https://mcdermottlab.mit.edu/mturk_stimuli/bjmedina/nhs-region-n_80/sequences/isi_16/len120/seq063_len120_s70_isi-1p0_0p0_16p0.json","10.95","true","tx5twdeae8g","","2779","https://mcdermottlab.mit.edu/bjmedina/experiments/mem_exp_v01/assets/noise_calib_stim.wav","1","","","","","","","","","",""
"","","","","","instructions","8","86530","0.0-4.0","https://mcdermottlab.mit.edu/mturk_stimuli/bjmedina/nhs-region-n_80/sequences/isi_16/len120/seq063_len120_s70_isi-1p0_0p0_16p0.json","10.95","true","tx5twdeae8g","[{""page_index"":0,""viewing_time"":18415}]","18416","","","","","","","","","","","",""
"","","","","","audio-button-response","9","92444","0.0-5.0-0.0","https://mcdermottlab.mit.edu/mturk_stimuli/bjmedina/nhs-region-n_80/sequences/isi_16/len120/seq063_len120_s70_isi-1p0_0p0_16p0.json","10.95","true","tx5twdeae8g","","5408","https://mcdermottlab.mit.edu/bjmedina/experiments/mem_exp_v01/assets/antiphase_HC_IOS.wav","2","hc","3","1","","","","","","",""
"","","","","","audio-button-response","10","98107","0.0-5.0-0.1","https://mcdermottlab.mit.edu/mturk_stimuli/bjmedina/nhs-region-n_80/sequences/isi_16/len120/seq063_len120_s70_isi-1p0_0p0_16p0.json","10.95","true","tx5twdeae8g","","5008","https://mcdermottlab.mit.edu/bjmedina/experiments/mem_exp_v01/assets/antiphase_HC_OSI.wav","1","hc","2","1","","","","","","",""
"","","","","","audio-button-response","11","102964","0.0-5.0-0.2","https://mcdermottlab.mit.edu/mturk_stimuli/bjmedina/nhs-region-n_80/sequences/isi_16/len120/seq063_len120_s70_isi-1p0_0p0_16p0.json","10.95","true","tx5twdeae8g","","4389","https://mcdermottlab.mit.edu/bjmedina/experiments/mem_exp_v01/assets/antiphase_HC_SOI.wav","0","hc","1","1","","","","","","",""
"","","","","","audio-button-response","12","108013","0.0-5.0-0.3","https://mcdermottlab.mit.edu/mturk_stimuli/bjmedina/nhs-region-n_80/sequences/isi_16/len120/seq063_len120_s70_isi-1p0_0p0_16p0.json","10.95","true","tx5twdeae8g","","4560","https://mcdermottlab.mit.edu/bjmedina/experiments/mem_exp_v01/assets/antiphase_HC_SIO.wav","0","hc","1","1","","","","","","",""
"","","","","","audio-button-response","13","113496","0.0-5.0-0.4","https://mcdermottlab.mit.edu/mturk_stimuli/bjmedina/nhs-region-n_80/sequences/isi_16/len120/seq063_len120_s70_isi-1p0_0p0_16p0.json","10.95","true","tx5twdeae8g","","4955","https://mcdermottlab.mit.edu/bjmedina/experiments/mem_exp_v01/assets/antiphase_HC_OIS.wav","2","hc","3","1","","","","","","",""
"","","","","","audio-button-response","14","118479","0.0-5.0-0.5","https://mcdermottlab.mit.edu/mturk_stimuli/bjmedina/nhs-region-n_80/sequences/isi_16/len120/seq063_len120_s70_isi-1p0_0p0_16p0.json","10.95","true","tx5twdeae8g","","4496","https://mcdermottlab.mit.edu/bjmedina/experiments/mem_exp_v01/assets/antiphase_HC_ISO.wav","1","hc","2","1","","","","","","",""
"","","","","","html-keyboard-response","15","127847","0.0-6.0","https://mcdermottlab.mit.edu/mturk_stimuli/bjmedina/nhs-region-n_80/sequences/isi_16/len120/seq063_len120_s70_isi-1p0_0p0_16p0.json","10.95","true","tx5twdeae8g","","9366","<h1>You have finished the LOUDNESS task!</h1> <p>Press space to continue</p>"," ","","","","","","","","","",""
"","","","","","instructions","16","198297","0.0-7.0","https://mcdermottlab.mit.edu/mturk_stimuli/bjmedina/nhs-region-n_80/sequences/isi_16/len120/seq063_len120_s70_isi-1p0_0p0_16p0.json","10.95","true","tx5twdeae8g","[{""page_index"":0,""viewing_time"":18398},{""page_index"":1,""viewing_time"":16267},{""page_index"":2,""viewing_time"":27799},{""page_index"":3,""viewing_time"":7984}]","70448","","","","","","","","","","","",""
"","","","","","html-keyboard-response","17","198350","0.0-8.0-0.0","https://mcdermottlab.mit.edu/mturk_stimuli/bjmedina/nhs-region-n_80/sequences/isi_16/len120/seq063_len120_s70_isi-1p0_0p0_16p0.json","10.95","true","tx5twdeae8g","","null","<span style=""font-size: 40px"">+</span>","null","fixation","","","","","","","","",""
"","","","","","audio-button-response","18","205848","0.0-8.0-1.0","https://mcdermottlab.mit.edu/mturk_stimuli/bjmedina/nhs-region-n_80/sequences/isi_16/len120/seq063_len120_s70_isi-1p0_0p0_16p0.json","10.95","true","tx5twdeae8g","","6112","https://mcdermottlab.mit.edu/mturk_stimuli/bjmedina/mem_exp_v05/mem_stim_1023_f32.wav","0","demo","","","0","","","","","",""
"","","","","","html-keyboard-response","19","205901","0.0-8.0-0.1","https://mcdermottlab.mit.edu/mturk_stimuli/bjmedina/nhs-region-n_80/sequences/isi_16/len120/seq063_len120_s70_isi-1p0_0p0_16p0.json","10.95","true","tx5twdeae8g","","null","<span style=""font-size: 40px"">+</span>","null","fixation","","","","","","","","",""
"","","","","","audio-button-response","20","210531","0.0-8.0-1.1","https://mcdermottlab.mit.edu/mturk_stimuli/bjmedina/nhs-region-n_80/sequences/isi_16/len120/seq063_len120_s70_isi-1p0_0p0_16p0.json","10.95","true","tx5twdeae8g","","4021","https://mcdermottlab.mit.edu/mturk_stimuli/bjmedina/mem_exp_v05/mem_stim_1022_f32.wav","0","demo","","","0","","","","","",""
"","","","","","html-keyboard-response","21","210583","0.0-8.0-0.2","https://mcdermottlab.mit.edu/mturk_stimuli/bjmedina/nhs-region-n_80/sequences/isi_16/len120/seq063_len120_s70_isi-1p0_0p0_16p0.json","10.95","true","tx5twdeae8g","","null","<span style=""font-size: 40px"">+</span>","null","fixation","","","","","","","","",""
"","","","","","audio-button-response","22","213931","0.0-8.0-1.2","https://mcdermottlab.mit.edu/mturk_stimuli/bjmedina/nhs-region-n_80/sequences/isi_16/len120/seq063_len120_s70_isi-1p0_0p0_16p0.json","10.95","true","tx5twdeae8g","","3344","https://mcdermottlab.mit.edu/mturk_stimuli/bjmedina/mem_exp_v05/mem_stim_1022_f32.wav","3","demo","","","1","","","","","",""
"","","","","","html-keyboard-response","23","213984","0.0-8.0-0.3","https://mcdermottlab.mit.edu/mturk_stimuli/bjmedina/nhs-region-n_80/sequences/isi_16/len120/seq063_len120_s70_isi-1p0_0p0_16p0.json","10.95","true","tx5twdeae8g","","null","<span style=""font-size: 40px"">+</span>","null","fixation","","","","","","","","",""
"","","","","","audio-button-response","24","218227","0.0-8.0-1.3","https://mcdermottlab.mit.edu/mturk_stimuli/bjmedina/nhs-region-n_80/sequences/isi_16/len120/seq063_len120_s70_isi-1p0_0p0_16p0.json","10.95","true","tx5twdeae8g","","2976","https://mcdermottlab.mit.edu/mturk_stimuli/bjmedina/mem_exp_v05/mem_stim_1021_f32.wav","3","demo","","","0","","","","","",""
"","","","","","html-keyboard-response","25","218279","0.0-8.0-0.4","https://mcdermottlab.mit.edu/mturk_stimuli/bjmedina/nhs-region-n_80/sequences/isi_16/len120/seq063_len120_s70_isi-1p0_0p0_16p0.json","10.95","true","tx5twdeae8g","","null","<span style=""font-size: 40px"">+</span>","null","fixation","","","","","","","","",""
"","","","","","audio-button-response","26","221176","0.0-8.0-1.4","https://mcdermottlab.mit.edu/mturk_stimuli/bjmedina/nhs-region-n_80/sequences/isi_16/len120/seq063_len120_s70_isi-1p0_0p0_16p0.json","10.95","true","tx5twdeae8g","","2896","https://mcdermottlab.mit.edu/mturk_stimuli/bjmedina/mem_exp_v05/mem_stim_1023_f32.wav","0","demo","","","1","","","","","",""
"","","","","","html-keyboard-response","27","221228","0.0-8.0-0.5","https://mcdermottlab.mit.edu/mturk_stimuli/bjmedina/nhs-region-n_80/sequences/isi_16/len120/seq063_len120_s70_isi-1p0_0p0_16p0.json","10.95","true","tx5twdeae8g","","null","<span style=""font-size: 40px"">+</span>","null","fixation","","","","","","","","",""
"","","","","","audio-button-response","28","224615","0.0-8.0-1.5","https://mcdermottlab.mit.edu/mturk_stimuli/bjmedina/nhs-region-n_80/sequences/isi_16/len120/seq063_len120_s70_isi-1p0_0p0_16p0.json","10.95","true","tx5twdeae8g","","2272","https://mcdermottlab.mit.edu/mturk_stimuli/bjmedina/mem_exp_v05/mem_stim_1020_f32.wav","0","demo","","","0","","","","","",""
"","","","","","html-keyboard-response","29","224668","0.0-8.0-0.6","https://mcdermottlab.mit.edu/mturk_stimuli/bjmedina/nhs-region-n_80/sequences/isi_16/len120/seq063_len120_s70_isi-1p0_0p0_16p0.json","10.95","true","tx5twdeae8g","","null","<span style=""font-size: 40px"">+</span>","null","fixation","","","","","","","","",""
"","","","","","audio-button-response","30","228264","0.0-8.0-1.6","https://mcdermottlab.mit.edu/mturk_stimuli/bjmedina/nhs-region-n_80/sequences/isi_16/len120/seq063_len120_s70_isi-1p0_0p0_16p0.json","10.95","true","tx5twdeae8g","","3099","https://mcdermottlab.mit.edu/mturk_stimuli/bjmedina/mem_exp_v05/mem_stim_1019_f32.wav","0","demo","","","0","","","","","",""
"","","","","","html-keyboard-response","31","228317","0.0-8.0-0.7","https://mcdermottlab.mit.edu/mturk_stimuli/bjmedina/nhs-region-n_80/sequences/isi_16/len120/seq063_len120_s70_isi-1p0_0p0_16p0.json","10.95","true","tx5twdeae8g","","null","<span style=""font-size: 40px"">+</span>","null","fixation","","","","","","","","",""
"","","","","","audio-button-response","32","233096","0.0-8.0-1.7","https://mcdermottlab.mit.edu/mturk_stimuli/bjmedina/nhs-region-n_80/sequences/isi_16/len120/seq063_len120_s70_isi-1p0_0p0_16p0.json","10.95","true","tx5twdeae8g","","4779","https://mcdermottlab.mit.edu/mturk_stimuli/bjmedina/mem_exp_v05/mem_stim_1021_f32.wav","2","demo","","","1","","","","","",""
"","","","","","html-keyboard-response","33","236830","0.0-9.0","https://mcdermottlab.mit.edu/mturk_stimuli/bjmedina/nhs-region-n_80/sequences/isi_16/len120/seq063_len120_s70_isi-1p0_0p0_16p0.json","10.95","true","tx5twdeae8g","","3733","<p>You are now ready to start the experiment. Press SPACE when you are ready to start.</p>"," ","","","","","","","","","",""
"","","","","","html-keyboard-response","34","236883","0.0-10.0-1.0","https://mcdermottlab.mit.edu/mturk_stimuli/bjmedina/nhs-region-n_80/sequences/isi_16/len120/seq063_len120_s70_isi-1p0_0p0_16p0.json","10.95","true","tx5twdeae8g","","null","<span style=""font-size: 40px"">+</span>","null","","","","","","","","","",""
"","","","","","audio-button-response","35","244267","0.0-10.0-2.0","https://mcdermottlab.mit.edu/mturk_stimuli/bjmedina/nhs-region-n_80/sequences/isi_16/len120/seq063_len120_s70_isi-1p0_0p0_16p0.json","10.95","true","tx5twdeae8g","","6987","https://mcdermottlab.mit.edu/mturk_stimuli/bjmedina/nhs-region-n_80/mem_stim_23.wav","0","main","","","false","mem_stim_23.wav","false","-1","","1","correct_rejection"
"","","","","","html-keyboard-response","36","244328","0.0-10.0-1.1","https://mcdermottlab.mit.edu/mturk_stimuli/bjmedina/nhs-region-n_80/sequences/isi_16/len120/seq063_len120_s70_isi-1p0_0p0_16p0.json","10.95","true","tx5twdeae8g","","null","<span style=""font-size: 40px"">+</span>","null","","","","","","","","","",""
"","","","","","audio-button-response","37","253167","0.0-10.0-2.1","https://mcdermottlab.mit.edu/mturk_stimuli/bjmedina/nhs-region-n_80/sequences/isi_16/len120/seq063_len120_s70_isi-1p0_0p0_16p0.json","10.95","true","tx5twdeae8g","","8373","https://mcdermottlab.mit.edu/mturk_stimuli/bjmedina/nhs-region-n_80/mem_stim_28.wav","0","main","","","false","mem_stim_28.wav","false","-1","","1","correct_rejection"
"","","","","","html-keyboard-response","38","253223","0.0-10.0-1.2","https://mcdermottlab.mit.edu/mturk_stimuli/bjmedina/nhs-region-n_80/sequences/isi_16/len120/seq063_len120_s70_isi-1p0_0p0_16p0.json","10.95","true","tx5twdeae8g","","null","<span style=""font-size: 40px"">+</span>","null","","","","","","","","","",""
"","","","","","audio-button-response","39","271514","0.0-10.0-2.2","https://mcdermottlab.mit.edu/mturk_stimuli/bjmedina/nhs-region-n_80/sequences/isi_16/len120/seq063_len120_s70_isi-1p0_0p0_16p0.json","10.95","true","tx5twdeae8g","","17797","https://mcdermottlab.mit.edu/mturk_stimuli/bjmedina/nhs-region-n_80/mem_stim_20.wav","0","main","","","false","mem_stim_20.wav","false","-1","","1","correct_rejection"
"","","","","","html-keyboard-response","40","271577","0.0-10.0-1.3","https://mcdermottlab.mit.edu/mturk_stimuli/bjmedina/nhs-region-n_80/sequences/isi_16/len120/seq063_len120_s70_isi-1p0_0p0_16p0.json","10.95","true","tx5twdeae8g","","null","<span style=""font-size: 40px"">+</span>","null","","","","","","","","","",""
"","","","","","audio-button-response","41","280031","0.0-10.0-2.3","https://mcdermottlab.mit.edu/mturk_stimuli/bjmedina/nhs-region-n_80/sequences/isi_16/len120/seq063_len120_s70_isi-1p0_0p0_16p0.json","10.95","true","tx5twdeae8g","","7925","https://mcdermottlab.mit.edu/mturk_stimuli/bjmedina/nhs-region-n_80/mem_stim_27.wav","0","main","","","false","mem_stim_27.wav","false","-1","","1","correct_rejection"
"","","","","","html-keyboard-response","42","280088","0.0-10.0-1.4","https://mcdermottlab.mit.edu/mturk_stimuli/bjmedina/nhs-region-n_80/sequences/isi_16/len120/seq063_len120_s70_isi-1p0_0p0_16p0.json","10.95","true","tx5twdeae8g","","null","<span style=""font-size: 40px"">+</span>","null","","","","","","","","","",""
"","","","","","audio-button-response","43","283515","0.0-10.0-2.4","https://mcdermottlab.mit.edu/mturk_stimuli/bjmedina/nhs-region-n_80/sequences/isi_16/len120/seq063_len120_s70_isi-1p0_0p0_16p0.json","10.95","true","tx5twdeae8g","","2779","https://mcdermottlab.mit.edu/mturk_stimuli/bjmedina/nhs-region-n_80/mem_stim_7.wav","0","main","","","false","mem_stim_7.wav","false","-1","","1","correct_rejection"
"","","","","","html-keyboard-response","44","283573","0.0-10.0-1.5","https://mcdermottlab.mit.edu/mturk_stimuli/bjmedina/nhs-region-n_80/sequences/isi_16/len120/seq063_len120_s70_isi-1p0_0p0_16p0.json","10.95","true","tx5twdeae8g","","null","<span style=""font-size: 40px"">+</span>","null","","","","","","","","","",""
"","","","","","audio-button-response","45","287417","0.0-10.0-2.5","https://mcdermottlab.mit.edu/mturk_stimuli/bjmedina/nhs-region-n_80/sequences/isi_16/len120/seq063_len120_s70_isi-1p0_0p0_16p0.json","10.95","true","tx5twdeae8g","","2688","https://mcdermottlab.mit.edu/mturk_stimuli/bjmedina/nhs-region-n_80/mem_stim_34.wav","0","main","","","false","mem_stim_34.wav","false","-1","","1","correct_rejection"
"","","","","","html-keyboard-response","46","287471","0.0-10.0-1.6","https://mcdermottlab.mit.edu/mturk_stimuli/bjmedina/nhs-region-n_80/sequences/isi_16/len120/seq063_len120_s70_isi-1p0_0p0_16p0.json","10.95","true","tx5twdeae8g","","null","<span style=""font-size: 40px"">+</span>","null","","","","","","","","","",""
"","","","","","audio-button-response","47","290898","0.0-10.0-2.6","https://mcdermottlab.mit.edu/mturk_stimuli/bjmedina/nhs-region-n_80/sequences/isi_16/len120/seq063_len120_s70_isi-1p0_0p0_16p0.json","10.95","true","tx5twdeae8g","","2880","https://mcdermottlab.mit.edu/mturk_stimuli/bjmedina/nhs-region-n_80/mem_stim_35.wav","0","main","","","false","mem_stim_35.wav","false","-1","","1","correct_rejection"
"","","","","","html-keyboard-response","48","290954","0.0-10.0-1.7","https://mcdermottlab.mit.edu/mturk_stimuli/bjmedina/nhs-region-n_80/sequences/isi_16/len120/seq063_len120_s70_isi-1p0_0p0_16p0.json","10.95","true","tx5twdeae8g","","null","<span style=""font-size: 40px"">+</span>","null","","","","","","","","","",""
"","","","","","audio-button-response","49","294416","0.0-10.0-2.7","https://mcdermottlab.mit.edu/mturk_stimuli/bjmedina/nhs-region-n_80/sequences/isi_16/len120/seq063_len120_s70_isi-1p0_0p0_16p0.json","10.95","true","tx5twdeae8g","","3019","https://mcdermottlab.mit.edu/mturk_stimuli/bjmedina/nhs-region-n_80/mem_stim_69.wav","0","main","","","false","mem_stim_69.wav","false","-1","","1","correct_rejection"
"","","","","","html-keyboard-response","50","294473","0.0-10.0-1.8","https://mcdermottlab.mit.edu/mturk_stimuli/bjmedina/nhs-region-n_80/sequences/isi_16/len120/seq063_len120_s70_isi-1p0_0p0_16p0.json","10.95","true","tx5twdeae8g","","null","<span style=""font-size: 40px"">+</span>","null","","","","","","","","","",""
"","","","","","audio-button-response","51","297683","0.0-10.0-2.8","https://mcdermottlab.mit.edu/mturk_stimuli/bjmedina/nhs-region-n_80/sequences/isi_16/len120/seq063_len120_s70_isi-1p0_0p0_16p0.json","10.95","true","tx5twdeae8g","","2837","https://mcdermottlab.mit.edu/mturk_stimuli/bjmedina/nhs-region-n_80/mem_stim_30.wav","0","main","","","false","mem_stim_30.wav","false","-1","","1","correct_rejection"
"","","","","","html-keyboard-response","52","297739","0.0-10.0-1.9","https://mcdermottlab.mit.edu/mturk_stimuli/bjmedina/nhs-region-n_80/sequences/isi_16/len120/seq063_len120_s70_isi-1p0_0p0_16p0.json","10.95","true","tx5twdeae8g","","null","<span style=""font-size: 40px"">+</span>","null","","","","","","","","","",""
"","","","","","audio-button-response","53","301214","0.0-10.0-2.9","https://mcdermottlab.mit.edu/mturk_stimuli/bjmedina/nhs-region-n_80/sequences/isi_16/len120/seq063_len120_s70_isi-1p0_0p0_16p0.json","10.95","true","tx5twdeae8g","","2821","https://mcdermottlab.mit.edu/mturk_stimuli/bjmedina/nhs-region-n_80/mem_stim_77.wav","0","main","","","false","mem_stim_77.wav","false","-1","","1","correct_rejection"
"","","","","","html-keyboard-response","54","301272","0.0-10.0-1.10","https://mcdermottlab.mit.edu/mturk_stimuli/bjmedina/nhs-region-n_80/sequences/isi_16/len120/seq063_len120_s70_isi-1p0_0p0_16p0.json","10.95","true","tx5twdeae8g","","null","<span style=""font-size: 40px"">+</span>","null","","","","","","","","","",""
"","","","","","audio-button-response","55","307139","0.0-10.0-2.10","https://mcdermottlab.mit.edu/mturk_stimuli/bjmedina/nhs-region-n_80/sequences/isi_16/len120/seq063_len120_s70_isi-1p0_0p0_16p0.json","10.95","true","tx5twdeae8g","","5301","https://mcdermottlab.mit.edu/mturk_stimuli/bjmedina/nhs-region-n_80/mem_stim_49.wav","1","main","","","false","mem_stim_49.wav","false","-1","","0","false_alarm"
"","","","","","html-keyboard-response","56","307195","0.0-10.0-1.11","https://mcdermottlab.mit.edu/mturk_stimuli/bjmedina/nhs-region-n_80/sequences/isi_16/len120/seq063_len120_s70_isi-1p0_0p0_16p0.json","10.95","true","tx5twdeae8g","","null","<span style=""font-size: 40px"">+</span>","null","","","","","","","","","",""
"","","","","","audio-button-response","57","311447","0.0-10.0-2.11","https://mcdermottlab.mit.edu/mturk_stimuli/bjmedina/nhs-region-n_80/sequences/isi_16/len120/seq063_len120_s70_isi-1p0_0p0_16p0.json","10.95","true","tx5twdeae8g","","3605","https://mcdermottlab.mit.edu/mturk_stimuli/bjmedina/nhs-region-n_80/mem_stim_19.wav","2","main","","","false","mem_stim_19.wav","false","-1","","1","correct_rejection"
"","","","","","html-keyboard-response","58","311501","0.0-10.0-1.12","https://mcdermottlab.mit.edu/mturk_stimuli/bjmedina/nhs-region-n_80/sequences/isi_16/len120/seq063_len120_s70_isi-1p0_0p0_16p0.json","10.95","true","tx5twdeae8g","","null","<span style=""font-size: 40px"">+</span>","null","","","","","","","","","",""
"","","","","","audio-button-response","59","315498","0.0-10.0-2.12","https://mcdermottlab.mit.edu/mturk_stimuli/bjmedina/nhs-region-n_80/sequences/isi_16/len120/seq063_len120_s70_isi-1p0_0p0_16p0.json","10.95","true","tx5twdeae8g","","3291","https://mcdermottlab.mit.edu/mturk_stimuli/bjmedina/nhs-region-n_80/mem_stim_53.wav","0","main","","","false","mem_stim_53.wav","false","-1","","1","correct_rejection"
"","","","","","html-keyboard-response","60","315556","0.0-10.0-1.13","https://mcdermottlab.mit.edu/mturk_stimuli/bjmedina/nhs-region-n_80/sequences/isi_16/len120/seq063_len120_s70_isi-1p0_0p0_16p0.json","10.95","true","tx5twdeae8g","","null","<span style=""font-size: 40px"">+</span>","null","","","","","","","","","",""
"","","","","","audio-button-response","61","320720","0.0-10.0-2.13","https://mcdermottlab.mit.edu/mturk_stimuli/bjmedina/nhs-region-n_80/sequences/isi_16/len120/seq063_len120_s70_isi-1p0_0p0_16p0.json","10.95","true","tx5twdeae8g","","4523","https://mcdermottlab.mit.edu/mturk_stimuli/bjmedina/nhs-region-n_80/mem_stim_9.wav","0","main","","","false","mem_stim_9.wav","false","-1","","1","correct_rejection"
"","","","","","html-keyboard-response","62","320778","0.0-10.0-1.14","https://mcdermottlab.mit.edu/mturk_stimuli/bjmedina/nhs-region-n_80/sequences/isi_16/len120/seq063_len120_s70_isi-1p0_0p0_16p0.json","10.95","true","tx5twdeae8g","","null","<span style=""font-size: 40px"">+</span>","null","","","","","","","","","",""
"","","","","","audio-button-response","63","326814","0.0-10.0-2.14","https://mcdermottlab.mit.edu/mturk_stimuli/bjmedina/nhs-region-n_80/sequences/isi_16/len120/seq063_len120_s70_isi-1p0_0p0_16p0.json","10.95","true","tx5twdeae8g","","5035","https://mcdermottlab.mit.edu/mturk_stimuli/bjmedina/nhs-region-n_80/mem_stim_39.wav","0","main","","","false","mem_stim_39.wav","false","-1","","1","correct_rejection"
"","","","","","html-keyboard-response","64","326872","0.0-10.0-1.15","https://mcdermottlab.mit.edu/mturk_stimuli/bjmedina/nhs-region-n_80/sequences/isi_16/len120/seq063_len120_s70_isi-1p0_0p0_16p0.json","10.95","true","tx5twdeae8g","","null","<span style=""font-size: 40px"">+</span>","null","","","","","","","","","",""
"","","","","","audio-button-response","65","332311","0.0-10.0-2.15","https://mcdermottlab.mit.edu/mturk_stimuli/bjmedina/nhs-region-n_80/sequences/isi_16/len120/seq063_len120_s70_isi-1p0_0p0_16p0.json","10.95","true","tx5twdeae8g","","4091","https://mcdermottlab.mit.edu/mturk_stimuli/bjmedina/nhs-region-n_80/mem_stim_25.wav","0","main","","","false","mem_stim_25.wav","false","-1","","1","correct_rejection"
"","","","","","html-keyboard-response","66","332366","0.0-10.0-1.16","https://mcdermottlab.mit.edu/mturk_stimuli/bjmedina/nhs-region-n_80/sequences/isi_16/len120/seq063_len120_s70_isi-1p0_0p0_16p0.json","10.95","true","tx5twdeae8g","","null","<span style=""font-size: 40px"">+</span>","null","","","","","","","","","",""
"","","","","","audio-button-response","67","335616","0.0-10.0-2.16","https://mcdermottlab.mit.edu/mturk_stimuli/bjmedina/nhs-region-n_80/sequences/isi_16/len120/seq063_len120_s70_isi-1p0_0p0_16p0.json","10.95","true","tx5twdeae8g","","2725","https://mcdermottlab.mit.edu/mturk_stimuli/bjmedina/nhs-region-n_80/mem_stim_59.wav","0","main","","","false","mem_stim_59.wav","false","-1","","1","correct_rejection"
"","","","","","html-keyboard-response","68","335675","0.0-10.0-1.17","https://mcdermottlab.mit.edu/mturk_stimuli/bjmedina/nhs-region-n_80/sequences/isi_16/len120/seq063_len120_s70_isi-1p0_0p0_16p0.json","10.95","true","tx5twdeae8g","","null","<span style=""font-size: 40px"">+</span>","null","","","","","","","","","",""
"","","","","","audio-button-response","69","343582","0.0-10.0-2.17","https://mcdermottlab.mit.edu/mturk_stimuli/bjmedina/nhs-region-n_80/sequences/isi_16/len120/seq063_len120_s70_isi-1p0_0p0_16p0.json","10.95","true","tx5twdeae8g","","7477","https://mcdermottlab.mit.edu/mturk_stimuli/bjmedina/nhs-region-n_80/mem_stim_41.wav","1","main","","","false","mem_stim_41.wav","false","-1","","0","false_alarm"
"","","","","","html-keyboard-response","70","343642","0.0-10.0-1.18","https://mcdermottlab.mit.edu/mturk_stimuli/bjmedina/nhs-region-n_80/sequences/isi_16/len120/seq063_len120_s70_isi-1p0_0p0_16p0.json","10.95","true","tx5twdeae8g","","null","<span style=""font-size: 40px"">+</span>","null","","","","","","","","","",""
"","","","","","audio-button-response","71","347247","0.0-10.0-2.18","https://mcdermottlab.mit.edu/mturk_stimuli/bjmedina/nhs-region-n_80/sequences/isi_16/len120/seq063_len120_s70_isi-1p0_0p0_16p0.json","10.95","true","tx5twdeae8g","","3605","https://mcdermottlab.mit.edu/mturk_stimuli/bjmedina/nhs-region-n_80/mem_stim_28.wav","1","main","","","true","mem_stim_28.wav","false","16","","1","hit"
"","","","","","html-keyboard-response","72","347305","0.0-10.0-1.19","https://mcdermottlab.mit.edu/mturk_stimuli/bjmedina/nhs-region-n_80/sequences/isi_16/len120/seq063_len120_s70_isi-1p0_0p0_16p0.json","10.95","true","tx5twdeae8g","","null","<span style=""font-size: 40px"">+</span>","null","","","","","","","","","",""
"","","","","","audio-button-response","73","351481","0.0-10.0-2.19","https://mcdermottlab.mit.edu/mturk_stimuli/bjmedina/nhs-region-n_80/sequences/isi_16/len120/seq063_len120_s70_isi-1p0_0p0_16p0.json","10.95","true","tx5twdeae8g","","3547","https://mcdermottlab.mit.edu/mturk_stimuli/bjmedina/nhs-region-n_80/mem_stim_32.wav","2","main","","","false","mem_stim_32.wav","false","-1","","1","correct_rejection"
"","","","","","html-keyboard-response","74","351537","0.0-10.0-1.20","https://mcdermottlab.mit.edu/mturk_stimuli/bjmedina/nhs-region-n_80/sequences/isi_16/len120/seq063_len120_s70_isi-1p0_0p0_16p0.json","10.95","true","tx5twdeae8g","","null","<span style=""font-size: 40px"">+</span>","null","","","","","","","","","",""
"","","","","","audio-button-response","75","353647","0.0-10.0-2.20","https://mcdermottlab.mit.edu/mturk_stimuli/bjmedina/nhs-region-n_80/sequences/isi_16/len120/seq063_len120_s70_isi-1p0_0p0_16p0.json","10.95","true","tx5twdeae8g","","2112","https://mcdermottlab.mit.edu/mturk_stimuli/bjmedina/nhs-region-n_80/mem_stim_32.wav","3","main","","","true","mem_stim_32.wav","true","0","","0","miss"
"","","","","","html-keyboard-response","76","353704","0.0-10.0-1.21","https://mcdermottlab.mit.edu/mturk_stimuli/bjmedina/nhs-region-n_80/sequences/isi_16/len120/seq063_len120_s70_isi-1p0_0p0_16p0.json","10.95","true","tx5twdeae8g","","null","<span style=""font-size: 40px"">+</span>","null","","","","","","","","","",""
"","","","","","audio-button-response","77","357334","0.0-10.0-2.21","https://mcdermottlab.mit.edu/mturk_stimuli/bjmedina/nhs-region-n_80/sequences/isi_16/len120/seq063_len120_s70_isi-1p0_0p0_16p0.json","10.95","true","tx5twdeae8g","","3627","https://mcdermottlab.mit.edu/mturk_stimuli/bjmedina/nhs-region-n_80/mem_stim_7.wav","1","main","","","true","mem_stim_7.wav","false","16","","1","hit"
"","","","","","html-keyboard-response","78","357392","0.0-10.0-1.22","https://mcdermottlab.mit.edu/mturk_stimuli/bjmedina/nhs-region-n_80/sequences/isi_16/len120/seq063_len120_s70_isi-1p0_0p0_16p0.json","10.95","true","tx5twdeae8g","","null","<span style=""font-size: 40px"">+</span>","null","","","","","","","","","",""
"","","","","","audio-button-response","79","360482","0.0-10.0-2.22","https://mcdermottlab.mit.edu/mturk_stimuli/bjmedina/nhs-region-n_80/sequences/isi_16/len120/seq063_len120_s70_isi-1p0_0p0_16p0.json","10.95","true","tx5twdeae8g","","3088","https://mcdermottlab.mit.edu/mturk_stimuli/bjmedina/nhs-region-n_80/mem_stim_34.wav","0","main","","","true","mem_stim_34.wav","false","16","","0","miss"
"","","","","","html-keyboard-response","80","360539","0.0-10.0-1.23","https://mcdermottlab.mit.edu/mturk_stimuli/bjmedina/nhs-region-n_80/sequences/isi_16/len120/seq063_len120_s70_isi-1p0_0p0_16p0.json","10.95","true","tx5twdeae8g","","null","<span style=""font-size: 40px"">+</span>","null","","","","","","","","","",""
"","","","","","audio-button-response","81","365266","0.0-10.0-2.23","https://mcdermottlab.mit.edu/mturk_stimuli/bjmedina/nhs-region-n_80/sequences/isi_16/len120/seq063_len120_s70_isi-1p0_0p0_16p0.json","10.95","true","tx5twdeae8g","","3659","https://mcdermottlab.mit.edu/mturk_stimuli/bjmedina/nhs-region-n_80/mem_stim_63.wav","2","main","","","false","mem_stim_63.wav","false","-1","","1","correct_rejection"
"","","","","","html-keyboard-response","82","365323","0.0-10.0-1.24","https://mcdermottlab.mit.edu/mturk_stimuli/bjmedina/nhs-region-n_80/sequences/isi_16/len120/seq063_len120_s70_isi-1p0_0p0_16p0.json","10.95","true","tx5twdeae8g","","null","<span style=""font-size: 40px"">+</span>","null","","","","","","","","","",""
"","","","","","audio-button-response","83","369816","0.0-10.0-2.24","https://mcdermottlab.mit.edu/mturk_stimuli/bjmedina/nhs-region-n_80/sequences/isi_16/len120/seq063_len120_s70_isi-1p0_0p0_16p0.json","10.95","true","tx5twdeae8g","","4187","https://mcdermottlab.mit.edu/mturk_stimuli/bjmedina/nhs-region-n_80/mem_stim_78.wav","0","main","","","false","mem_stim_78.wav","false","-1","","1","correct_rejection"
"","","","","","html-keyboard-response","84","369877","0.0-10.0-1.25","https://mcdermottlab.mit.edu/mturk_stimuli/bjmedina/nhs-region-n_80/sequences/isi_16/len120/seq063_len120_s70_isi-1p0_0p0_16p0.json","10.95","true","tx5twdeae8g","","null","<span style=""font-size: 40px"">+</span>","null","","","","","","","","","",""
"","","","","","audio-button-response","85","372382","0.0-10.0-2.25","https://mcdermottlab.mit.edu/mturk_stimuli/bjmedina/nhs-region-n_80/sequences/isi_16/len120/seq063_len120_s70_isi-1p0_0p0_16p0.json","10.95","true","tx5twdeae8g","","2501","https://mcdermottlab.mit.edu/mturk_stimuli/bjmedina/nhs-region-n_80/mem_stim_78.wav","3","main","","","true","mem_stim_78.wav","true","0","","0","miss"
"","","","","","html-keyboard-response","86","372440","0.0-10.0-1.26","https://mcdermottlab.mit.edu/mturk_stimuli/bjmedina/nhs-region-n_80/sequences/isi_16/len120/seq063_len120_s70_isi-1p0_0p0_16p0.json","10.95","true","tx5twdeae8g","","null","<span style=""font-size: 40px"">+</span>","null","","","","","","","","","",""
"","","","","","audio-button-response","87","376615","0.0-10.0-2.26","https://mcdermottlab.mit.edu/mturk_stimuli/bjmedina/nhs-region-n_80/sequences/isi_16/len120/seq063_len120_s70_isi-1p0_0p0_16p0.json","10.95","true","tx5twdeae8g","","4171","https://mcdermottlab.mit.edu/mturk_stimuli/bjmedina/nhs-region-n_80/mem_stim_77.wav","2","main","","","true","mem_stim_77.wav","false","16","","0","miss"
"","","","","","html-keyboard-response","88","376671","0.0-10.0-1.27","https://mcdermottlab.mit.edu/mturk_stimuli/bjmedina/nhs-region-n_80/sequences/isi_16/len120/seq063_len120_s70_isi-1p0_0p0_16p0.json","10.95","true","tx5twdeae8g","","null","<span style=""font-size: 40px"">+</span>","null","","","","","","","","","",""
"","","","","","audio-button-response","89","379801","0.0-10.0-2.27","https://mcdermottlab.mit.edu/mturk_stimuli/bjmedina/nhs-region-n_80/sequences/isi_16/len120/seq063_len120_s70_isi-1p0_0p0_16p0.json","10.95","true","tx5twdeae8g","","2656","https://mcdermottlab.mit.edu/mturk_stimuli/bjmedina/nhs-region-n_80/mem_stim_26.wav","3","main","","","false","mem_stim_26.wav","false","-1","","1","correct_rejection"
"","","","","","html-keyboard-response","90","379861","0.0-10.0-1.28","https://mcdermottlab.mit.edu/mturk_stimuli/bjmedina/nhs-region-n_80/sequences/isi_16/len120/seq063_len120_s70_isi-1p0_0p0_16p0.json","10.95","true","tx5twdeae8g","","null","<span style=""font-size: 40px"">+</span>","null","","","","","","","","","",""
"","","","","","audio-button-response","91","382468","0.0-10.0-2.28","https://mcdermottlab.mit.edu/mturk_stimuli/bjmedina/nhs-region-n_80/sequences/isi_16/len120/seq063_len120_s70_isi-1p0_0p0_16p0.json","10.95","true","tx5twdeae8g","","2608","https://mcdermottlab.mit.edu/mturk_stimuli/bjmedina/nhs-region-n_80/mem_stim_26.wav","3","main","","","true","mem_stim_26.wav","true","0","","0","miss"
"","","","","","html-keyboard-response","92","382527","0.0-10.0-1.29","https://mcdermottlab.mit.edu/mturk_stimuli/bjmedina/nhs-region-n_80/sequences/isi_16/len120/seq063_len120_s70_isi-1p0_0p0_16p0.json","10.95","true","tx5twdeae8g","","null","<span style=""font-size: 40px"">+</span>","null","","","","","","","","","",""
"","","","","","audio-button-response","93","386781","0.0-10.0-2.29","https://mcdermottlab.mit.edu/mturk_stimuli/bjmedina/nhs-region-n_80/sequences/isi_16/len120/seq063_len120_s70_isi-1p0_0p0_16p0.json","10.95","true","tx5twdeae8g","","4251","https://mcdermottlab.mit.edu/mturk_stimuli/bjmedina/nhs-region-n_80/mem_stim_53.wav","1","main","","","true","mem_stim_53.wav","false","16","","1","hit"
"","","","","","html-keyboard-response","94","386842","0.0-10.0-1.30","https://mcdermottlab.mit.edu/mturk_stimuli/bjmedina/nhs-region-n_80/sequences/isi_16/len120/seq063_len120_s70_isi-1p0_0p0_16p0.json","10.95","true","tx5twdeae8g","","null","<span style=""font-size: 40px"">+</span>","null","","","","","","","","","",""
"","","","","","audio-button-response","95","392932","0.0-10.0-2.30","https://mcdermottlab.mit.edu/mturk_stimuli/bjmedina/nhs-region-n_80/sequences/isi_16/len120/seq063_len120_s70_isi-1p0_0p0_16p0.json","10.95","true","tx5twdeae8g","","5312","https://mcdermottlab.mit.edu/mturk_stimuli/bjmedina/nhs-region-n_80/mem_stim_42.wav","0","main","","","false","mem_stim_42.wav","false","-1","","1","correct_rejection"
"","","","","","html-keyboard-response","96","392994","0.0-10.0-1.31","https://mcdermottlab.mit.edu/mturk_stimuli/bjmedina/nhs-region-n_80/sequences/isi_16/len120/seq063_len120_s70_isi-1p0_0p0_16p0.json","10.95","true","tx5twdeae8g","","null","<span style=""font-size: 40px"">+</span>","null","","","","","","","","","",""
"","","","","","audio-button-response","97","396449","0.0-10.0-2.31","https://mcdermottlab.mit.edu/mturk_stimuli/bjmedina/nhs-region-n_80/sequences/isi_16/len120/seq063_len120_s70_isi-1p0_0p0_16p0.json","10.95","true","tx5twdeae8g","","2923","https://mcdermottlab.mit.edu/mturk_stimuli/bjmedina/nhs-region-n_80/mem_stim_15.wav","2","main","","","false","mem_stim_15.wav","false","-1","","1","correct_rejection"
"","","","","","html-keyboard-response","98","396511","0.0-10.0-1.32","https://mcdermottlab.mit.edu/mturk_stimuli/bjmedina/nhs-region-n_80/sequences/isi_16/len120/seq063_len120_s70_isi-1p0_0p0_16p0.json","10.95","true","tx5twdeae8g","","null","<span style=""font-size: 40px"">+</span>","null","","","","","","","","","",""
"","","","","","audio-button-response","99","399348","0.0-10.0-2.32","https://mcdermottlab.mit.edu/mturk_stimuli/bjmedina/nhs-region-n_80/sequences/isi_16/len120/seq063_len120_s70_isi-1p0_0p0_16p0.json","10.95","true","tx5twdeae8g","","2837","https://mcdermottlab.mit.edu/mturk_stimuli/bjmedina/nhs-region-n_80/mem_stim_25.wav","2","main","","","true","mem_stim_25.wav","false","16","","0","miss"
"","","","","","html-keyboard-response","100","399405","0.0-10.0-1.33","https://mcdermottlab.mit.edu/mturk_stimuli/bjmedina/nhs-region-n_80/sequences/isi_16/len120/seq063_len120_s70_isi-1p0_0p0_16p0.json","10.95","true","tx5twdeae8g","","null","<span style=""font-size: 40px"">+</span>","null","","","","","","","","","",""
"","","","","","audio-button-response","101","402116","0.0-10.0-2.33","https://mcdermottlab.mit.edu/mturk_stimuli/bjmedina/nhs-region-n_80/sequences/isi_16/len120/seq063_len120_s70_isi-1p0_0p0_16p0.json","10.95","true","tx5twdeae8g","","2709","https://mcdermottlab.mit.edu/mturk_stimuli/bjmedina/nhs-region-n_80/mem_stim_59.wav","3","main","","","true","mem_stim_59.wav","false","16","","0","miss"
"","","","","","html-keyboard-response","102","402174","0.0-10.0-1.34","https://mcdermottlab.mit.edu/mturk_stimuli/bjmedina/nhs-region-n_80/sequences/isi_16/len120/seq063_len120_s70_isi-1p0_0p0_16p0.json","10.95","true","tx5twdeae8g","","null","<span style=""font-size: 40px"">+</span>","null","","","","","","","","","",""
"","","","","","audio-button-response","103","405599","0.0-10.0-2.34","https://mcdermottlab.mit.edu/mturk_stimuli/bjmedina/nhs-region-n_80/sequences/isi_16/len120/seq063_len120_s70_isi-1p0_0p0_16p0.json","10.95","true","tx5twdeae8g","","2811","https://mcdermottlab.mit.edu/mturk_stimuli/bjmedina/nhs-region-n_80/mem_stim_16.wav","3","main","","","false","mem_stim_16.wav","false","-1","","1","correct_rejection"
"","","","","","html-keyboard-response","104","405655","0.0-10.0-1.35","https://mcdermottlab.mit.edu/mturk_stimuli/bjmedina/nhs-region-n_80/sequences/isi_16/len120/seq063_len120_s70_isi-1p0_0p0_16p0.json","10.95","true","tx5twdeae8g","","null","<span style=""font-size: 40px"">+</span>","null","","","","","","","","","",""
"","","","","","audio-button-response","105","409415","0.0-10.0-2.35","https://mcdermottlab.mit.edu/mturk_stimuli/bjmedina/nhs-region-n_80/sequences/isi_16/len120/seq063_len120_s70_isi-1p0_0p0_16p0.json","10.95","true","tx5twdeae8g","","3413","https://mcdermottlab.mit.edu/mturk_stimuli/bjmedina/nhs-region-n_80/mem_stim_71.wav","1","main","","","false","mem_stim_71.wav","false","-1","","0","false_alarm"
"","","","","","html-keyboard-response","106","409473","0.0-10.0-1.36","https://mcdermottlab.mit.edu/mturk_stimuli/bjmedina/nhs-region-n_80/sequences/isi_16/len120/seq063_len120_s70_isi-1p0_0p0_16p0.json","10.95","true","tx5twdeae8g","","null","<span style=""font-size: 40px"">+</span>","null","","","","","","","","","",""
"","","","","","audio-button-response","107","414633","0.0-10.0-2.36","https://mcdermottlab.mit.edu/mturk_stimuli/bjmedina/nhs-region-n_80/sequences/isi_16/len120/seq063_len120_s70_isi-1p0_0p0_16p0.json","10.95","true","tx5twdeae8g","","4176","https://mcdermottlab.mit.edu/mturk_stimuli/bjmedina/nhs-region-n_80/mem_stim_64.wav","2","main","","","false","mem_stim_64.wav","false","-1","","1","correct_rejection"
"","","","","","html-keyboard-response","108","414695","0.0-10.0-1.37","https://mcdermottlab.mit.edu/mturk_stimuli/bjmedina/nhs-region-n_80/sequences/isi_16/len120/seq063_len120_s70_isi-1p0_0p0_16p0.json","10.95","true","tx5twdeae8g","","null","<span style=""font-size: 40px"">+</span>","null","","","","","","","","","",""
"","","","","","audio-button-response","109","418266","0.0-10.0-2.37","https://mcdermottlab.mit.edu/mturk_stimuli/bjmedina/nhs-region-n_80/sequences/isi_16/len120/seq063_len120_s70_isi-1p0_0p0_16p0.json","10.95","true","tx5twdeae8g","","3008","https://mcdermottlab.mit.edu/mturk_stimuli/bjmedina/nhs-region-n_80/mem_stim_76.wav","2","main","","","false","mem_stim_76.wav","false","-1","","1","correct_rejection"
"","","","","","html-keyboard-response","110","418327","0.0-10.0-1.38","https://mcdermottlab.mit.edu/mturk_stimuli/bjmedina/nhs-region-n_80/sequences/isi_16/len120/seq063_len120_s70_isi-1p0_0p0_16p0.json","10.95","true","tx5twdeae8g","","null","<span style=""font-size: 40px"">+</span>","null","","","","","","","","","",""
"","","","","","audio-button-response","111","421001","0.0-10.0-2.38","https://mcdermottlab.mit.edu/mturk_stimuli/bjmedina/nhs-region-n_80/sequences/isi_16/len120/seq063_len120_s70_isi-1p0_0p0_16p0.json","10.95","true","tx5twdeae8g","","2677","https://mcdermottlab.mit.edu/mturk_stimuli/bjmedina/nhs-region-n_80/mem_stim_76.wav","3","main","","","true","mem_stim_76.wav","true","0","","0","miss"
"","","","","","html-keyboard-response","112","421059","0.0-10.0-1.39","https://mcdermottlab.mit.edu/mturk_stimuli/bjmedina/nhs-region-n_80/sequences/isi_16/len120/seq063_len120_s70_isi-1p0_0p0_16p0.json","10.95","true","tx5twdeae8g","","null","<span style=""font-size: 40px"">+</span>","null","","","","","","","","","",""
"","","","","","audio-button-response","113","425332","0.0-10.0-2.39","https://mcdermottlab.mit.edu/mturk_stimuli/bjmedina/nhs-region-n_80/sequences/isi_16/len120/seq063_len120_s70_isi-1p0_0p0_16p0.json","10.95","true","tx5twdeae8g","","3653","https://mcdermottlab.mit.edu/mturk_stimuli/bjmedina/nhs-region-n_80/mem_stim_22.wav","1","main","","","false","mem_stim_22.wav","false","-1","","0","false_alarm"
"","","","","","html-keyboard-response","114","425391","0.0-10.0-1.40","https://mcdermottlab.mit.edu/mturk_stimuli/bjmedina/nhs-region-n_80/sequences/isi_16/len120/seq063_len120_s70_isi-1p0_0p0_16p0.json","10.95","true","tx5twdeae8g","","null","<span style=""font-size: 40px"">+</span>","null","","","","","","","","","",""
"","","","","","audio-button-response","115","429599","0.0-10.0-2.40","https://mcdermottlab.mit.edu/mturk_stimuli/bjmedina/nhs-region-n_80/sequences/isi_16/len120/seq063_len120_s70_isi-1p0_0p0_16p0.json","10.95","true","tx5twdeae8g","","3883","https://mcdermottlab.mit.edu/mturk_stimuli/bjmedina/nhs-region-n_80/mem_stim_47.wav","2","main","","","false","mem_stim_47.wav","false","-1","","1","correct_rejection"
"","","","","","html-keyboard-response","116","429659","0.0-10.0-1.41","https://mcdermottlab.mit.edu/mturk_stimuli/bjmedina/nhs-region-n_80/sequences/isi_16/len120/seq063_len120_s70_isi-1p0_0p0_16p0.json","10.95","true","tx5twdeae8g","","null","<span style=""font-size: 40px"">+</span>","null","","","","","","","","","",""
"","","","","","audio-button-response","117","433349","0.0-10.0-2.41","https://mcdermottlab.mit.edu/mturk_stimuli/bjmedina/nhs-region-n_80/sequences/isi_16/len120/seq063_len120_s70_isi-1p0_0p0_16p0.json","10.95","true","tx5twdeae8g","","3024","https://mcdermottlab.mit.edu/mturk_stimuli/bjmedina/nhs-region-n_80/mem_stim_2.wav","0","main","","","false","mem_stim_2.wav","false","-1","","1","correct_rejection"
"","","","","","html-keyboard-response","118","433411","0.0-10.0-1.42","https://mcdermottlab.mit.edu/mturk_stimuli/bjmedina/nhs-region-n_80/sequences/isi_16/len120/seq063_len120_s70_isi-1p0_0p0_16p0.json","10.95","true","tx5twdeae8g","","null","<span style=""font-size: 40px"">+</span>","null","","","","","","","","","",""
"","","","","","audio-button-response","119","437183","0.0-10.0-2.42","https://mcdermottlab.mit.edu/mturk_stimuli/bjmedina/nhs-region-n_80/sequences/isi_16/len120/seq063_len120_s70_isi-1p0_0p0_16p0.json","10.95","true","tx5twdeae8g","","3136","https://mcdermottlab.mit.edu/mturk_stimuli/bjmedina/nhs-region-n_80/mem_stim_55.wav","3","main","","","false","mem_stim_55.wav","false","-1","","1","correct_rejection"
"","","","","","html-keyboard-response","120","437241","0.0-10.0-1.43","https://mcdermottlab.mit.edu/mturk_stimuli/bjmedina/nhs-region-n_80/sequences/isi_16/len120/seq063_len120_s70_isi-1p0_0p0_16p0.json","10.95","true","tx5twdeae8g","","null","<span style=""font-size: 40px"">+</span>","null","","","","","","","","","",""
"","","","","","audio-button-response","121","441320","0.0-10.0-2.43","https://mcdermottlab.mit.edu/mturk_stimuli/bjmedina/nhs-region-n_80/sequences/isi_16/len120/seq063_len120_s70_isi-1p0_0p0_16p0.json","10.95","true","tx5twdeae8g","","3573","https://mcdermottlab.mit.edu/mturk_stimuli/bjmedina/nhs-region-n_80/mem_stim_72.wav","1","main","","","false","mem_stim_72.wav","false","-1","","0","false_alarm"
"","","","","","html-keyboard-response","122","441379","0.0-10.0-1.44","https://mcdermottlab.mit.edu/mturk_stimuli/bjmedina/nhs-region-n_80/sequences/isi_16/len120/seq063_len120_s70_isi-1p0_0p0_16p0.json","10.95","true","tx5twdeae8g","","null","<span style=""font-size: 40px"">+</span>","null","","","","","","","","","",""
"","","","","","audio-button-response","123","445282","0.0-10.0-2.44","https://mcdermottlab.mit.edu/mturk_stimuli/bjmedina/nhs-region-n_80/sequences/isi_16/len120/seq063_len120_s70_isi-1p0_0p0_16p0.json","10.95","true","tx5twdeae8g","","3061","https://mcdermottlab.mit.edu/mturk_stimuli/bjmedina/nhs-region-n_80/mem_stim_6.wav","2","main","","","false","mem_stim_6.wav","false","-1","","1","correct_rejection"
"","","","","","html-keyboard-response","124","445343","0.0-10.0-1.45","https://mcdermottlab.mit.edu/mturk_stimuli/bjmedina/nhs-region-n_80/sequences/isi_16/len120/seq063_len120_s70_isi-1p0_0p0_16p0.json","10.95","true","tx5twdeae8g","","null","<span style=""font-size: 40px"">+</span>","null","","","","","","","","","",""
"","","","","","audio-button-response","125","450293","0.0-10.0-2.45","https://mcdermottlab.mit.edu/mturk_stimuli/bjmedina/nhs-region-n_80/sequences/isi_16/len120/seq063_len120_s70_isi-1p0_0p0_16p0.json","10.95","true","tx5twdeae8g","","4549","https://mcdermottlab.mit.edu/mturk_stimuli/bjmedina/nhs-region-n_80/mem_stim_17.wav","2","main","","","false","mem_stim_17.wav","false","-1","","1","correct_rejection"
"","","","","","html-keyboard-response","126","450348","0.0-10.0-1.46","https://mcdermottlab.mit.edu/mturk_stimuli/bjmedina/nhs-region-n_80/sequences/isi_16/len120/seq063_len120_s70_isi-1p0_0p0_16p0.json","10.95","true","tx5twdeae8g","","null","<span style=""font-size: 40px"">+</span>","null","","","","","","","","","",""
"","","","","","audio-button-response","127","454419","0.0-10.0-2.46","https://mcdermottlab.mit.edu/mturk_stimuli/bjmedina/nhs-region-n_80/sequences/isi_16/len120/seq063_len120_s70_isi-1p0_0p0_16p0.json","10.95","true","tx5twdeae8g","","3435","https://mcdermottlab.mit.edu/mturk_stimuli/bjmedina/nhs-region-n_80/mem_stim_38.wav","0","main","","","false","mem_stim_38.wav","false","-1","","1","correct_rejection"
"","","","","","html-keyboard-response","128","454478","0.0-10.0-1.47","https://mcdermottlab.mit.edu/mturk_stimuli/bjmedina/nhs-region-n_80/sequences/isi_16/len120/seq063_len120_s70_isi-1p0_0p0_16p0.json","10.95","true","tx5twdeae8g","","null","<span style=""font-size: 40px"">+</span>","null","","","","","","","","","",""
"","","","","","audio-button-response","129","457517","0.0-10.0-2.47","https://mcdermottlab.mit.edu/mturk_stimuli/bjmedina/nhs-region-n_80/sequences/isi_16/len120/seq063_len120_s70_isi-1p0_0p0_16p0.json","10.95","true","tx5twdeae8g","","3035","https://mcdermottlab.mit.edu/mturk_stimuli/bjmedina/nhs-region-n_80/mem_stim_42.wav","2","main","","","true","mem_stim_42.wav","false","16","","0","miss"
"","","","","","html-keyboard-response","130","457577","0.0-10.0-1.48","https://mcdermottlab.mit.edu/mturk_stimuli/bjmedina/nhs-region-n_80/sequences/isi_16/len120/seq063_len120_s70_isi-1p0_0p0_16p0.json","10.95","true","tx5twdeae8g","","null","<span style=""font-size: 40px"">+</span>","null","","","","","","","","","",""
"","","","","","audio-button-response","131","461983","0.0-10.0-2.48","https://mcdermottlab.mit.edu/mturk_stimuli/bjmedina/nhs-region-n_80/sequences/isi_16/len120/seq063_len120_s70_isi-1p0_0p0_16p0.json","10.95","true","tx5twdeae8g","","3381","https://mcdermottlab.mit.edu/mturk_stimuli/bjmedina/nhs-region-n_80/mem_stim_5.wav","1","main","","","false","mem_stim_5.wav","false","-1","","0","false_alarm"
"","","","","","html-keyboard-response","132","462052","0.0-10.0-1.49","https://mcdermottlab.mit.edu/mturk_stimuli/bjmedina/nhs-region-n_80/sequences/isi_16/len120/seq063_len120_s70_isi-1p0_0p0_16p0.json","10.95","true","tx5twdeae8g","","null","<span style=""font-size: 40px"">+</span>","null","","","","","","","","","",""
"","","","","","audio-button-response","133","466131","0.0-10.0-2.49","https://mcdermottlab.mit.edu/mturk_stimuli/bjmedina/nhs-region-n_80/sequences/isi_16/len120/seq063_len120_s70_isi-1p0_0p0_16p0.json","10.95","true","tx5twdeae8g","","3563","https://mcdermottlab.mit.edu/mturk_stimuli/bjmedina/nhs-region-n_80/mem_stim_58.wav","3","main","","","false","mem_stim_58.wav","false","-1","","1","correct_rejection"
"","","","","","html-keyboard-response","134","466188","0.0-10.0-1.50","https://mcdermottlab.mit.edu/mturk_stimuli/bjmedina/nhs-region-n_80/sequences/isi_16/len120/seq063_len120_s70_isi-1p0_0p0_16p0.json","10.95","true","tx5twdeae8g","","null","<span style=""font-size: 40px"">+</span>","null","","","","","","","","","",""
"","","","","","audio-button-response","135","469816","0.0-10.0-2.50","https://mcdermottlab.mit.edu/mturk_stimuli/bjmedina/nhs-region-n_80/sequences/isi_16/len120/seq063_len120_s70_isi-1p0_0p0_16p0.json","10.95","true","tx5twdeae8g","","3131","https://mcdermottlab.mit.edu/mturk_stimuli/bjmedina/nhs-region-n_80/mem_stim_62.wav","0","main","","","false","mem_stim_62.wav","false","-1","","1","correct_rejection"
"","","","","","html-keyboard-response","136","469874","0.0-10.0-1.51","https://mcdermottlab.mit.edu/mturk_stimuli/bjmedina/nhs-region-n_80/sequences/isi_16/len120/seq063_len120_s70_isi-1p0_0p0_16p0.json","10.95","true","tx5twdeae8g","","null","<span style=""font-size: 40px"">+</span>","null","","","","","","","","","",""
"","","","","","audio-button-response","137","473083","0.0-10.0-2.51","https://mcdermottlab.mit.edu/mturk_stimuli/bjmedina/nhs-region-n_80/sequences/isi_16/len120/seq063_len120_s70_isi-1p0_0p0_16p0.json","10.95","true","tx5twdeae8g","","3211","https://mcdermottlab.mit.edu/mturk_stimuli/bjmedina/nhs-region-n_80/mem_stim_16.wav","2","main","","","true","mem_stim_16.wav","false","16","","0","miss"
"","","","","","html-keyboard-response","138","473142","0.0-10.0-1.52","https://mcdermottlab.mit.edu/mturk_stimuli/bjmedina/nhs-region-n_80/sequences/isi_16/len120/seq063_len120_s70_isi-1p0_0p0_16p0.json","10.95","true","tx5twdeae8g","","null","<span style=""font-size: 40px"">+</span>","null","","","","","","","","","",""
"","","","","","audio-button-response","139","476930","0.0-10.0-2.52","https://mcdermottlab.mit.edu/mturk_stimuli/bjmedina/nhs-region-n_80/sequences/isi_16/len120/seq063_len120_s70_isi-1p0_0p0_16p0.json","10.95","true","tx5twdeae8g","","3243","https://mcdermottlab.mit.edu/mturk_stimuli/bjmedina/nhs-region-n_80/mem_stim_12.wav","2","main","","","false","mem_stim_12.wav","false","-1","","1","correct_rejection"
"","","","","","html-keyboard-response","140","476992","0.0-10.0-1.53","https://mcdermottlab.mit.edu/mturk_stimuli/bjmedina/nhs-region-n_80/sequences/isi_16/len120/seq063_len120_s70_isi-1p0_0p0_16p0.json","10.95","true","tx5twdeae8g","","null","<span style=""font-size: 40px"">+</span>","null","","","","","","","","","",""
"","","","","","audio-button-response","141","479599","0.0-10.0-2.53","https://mcdermottlab.mit.edu/mturk_stimuli/bjmedina/nhs-region-n_80/sequences/isi_16/len120/seq063_len120_s70_isi-1p0_0p0_16p0.json","10.95","true","tx5twdeae8g","","2608","https://mcdermottlab.mit.edu/mturk_stimuli/bjmedina/nhs-region-n_80/mem_stim_12.wav","3","main","","","true","mem_stim_12.wav","true","0","","0","miss"
"","","","","","html-keyboard-response","142","479658","0.0-10.0-1.54","https://mcdermottlab.mit.edu/mturk_stimuli/bjmedina/nhs-region-n_80/sequences/isi_16/len120/seq063_len120_s70_isi-1p0_0p0_16p0.json","10.95","true","tx5twdeae8g","","null","<span style=""font-size: 40px"">+</span>","null","","","","","","","","","",""
"","","","","","audio-button-response","143","483150","0.0-10.0-2.54","https://mcdermottlab.mit.edu/mturk_stimuli/bjmedina/nhs-region-n_80/sequences/isi_16/len120/seq063_len120_s70_isi-1p0_0p0_16p0.json","10.95","true","tx5twdeae8g","","3013","https://mcdermottlab.mit.edu/mturk_stimuli/bjmedina/nhs-region-n_80/mem_stim_50.wav","2","main","","","false","mem_stim_50.wav","false","-1","","1","correct_rejection"
"","","","","","html-keyboard-response","144","483208","0.0-10.0-1.55","https://mcdermottlab.mit.edu/mturk_stimuli/bjmedina/nhs-region-n_80/sequences/isi_16/len120/seq063_len120_s70_isi-1p0_0p0_16p0.json","10.95","true","tx5twdeae8g","","null","<span style=""font-size: 40px"">+</span>","null","","","","","","","","","",""
"","","","","","audio-button-response","145","487099","0.0-10.0-2.55","https://mcdermottlab.mit.edu/mturk_stimuli/bjmedina/nhs-region-n_80/sequences/isi_16/len120/seq063_len120_s70_isi-1p0_0p0_16p0.json","10.95","true","tx5twdeae8g","","3355","https://mcdermottlab.mit.edu/mturk_stimuli/bjmedina/nhs-region-n_80/mem_stim_73.wav","1","main","","","false","mem_stim_73.wav","false","-1","","0","false_alarm"
"","","","","","html-keyboard-response","146","487158","0.0-10.0-1.56","https://mcdermottlab.mit.edu/mturk_stimuli/bjmedina/nhs-region-n_80/sequences/isi_16/len120/seq063_len120_s70_isi-1p0_0p0_16p0.json","10.95","true","tx5twdeae8g","","null","<span style=""font-size: 40px"">+</span>","null","","","","","","","","","",""
"","","","","","audio-button-response","147","490399","0.0-10.0-2.56","https://mcdermottlab.mit.edu/mturk_stimuli/bjmedina/nhs-region-n_80/sequences/isi_16/len120/seq063_len120_s70_isi-1p0_0p0_16p0.json","10.95","true","tx5twdeae8g","","3243","https://mcdermottlab.mit.edu/mturk_stimuli/bjmedina/nhs-region-n_80/mem_stim_22.wav","2","main","","","true","mem_stim_22.wav","false","16","","0","miss"
"","","","","","html-keyboard-response","148","490455","0.0-10.0-1.57","https://mcdermottlab.mit.edu/mturk_stimuli/bjmedina/nhs-region-n_80/sequences/isi_16/len120/seq063_len120_s70_isi-1p0_0p0_16p0.json","10.95","true","tx5twdeae8g","","null","<span style=""font-size: 40px"">+</span>","null","","","","","","","","","",""
"","","","","","audio-button-response","149","494817","0.0-10.0-2.57","https://mcdermottlab.mit.edu/mturk_stimuli/bjmedina/nhs-region-n_80/sequences/isi_16/len120/seq063_len120_s70_isi-1p0_0p0_16p0.json","10.95","true","tx5twdeae8g","","3829","https://mcdermottlab.mit.edu/mturk_stimuli/bjmedina/nhs-region-n_80/mem_stim_66.wav","2","main","","","false","mem_stim_66.wav","false","-1","","1","correct_rejection"
"","","","","","html-keyboard-response","150","494876","0.0-10.0-1.58","https://mcdermottlab.mit.edu/mturk_stimuli/bjmedina/nhs-region-n_80/sequences/isi_16/len120/seq063_len120_s70_isi-1p0_0p0_16p0.json","10.95","true","tx5twdeae8g","","null","<span style=""font-size: 40px"">+</span>","null","","","","","","","","","",""
"","","","","","audio-button-response","151","497650","0.0-10.0-2.58","https://mcdermottlab.mit.edu/mturk_stimuli/bjmedina/nhs-region-n_80/sequences/isi_16/len120/seq063_len120_s70_isi-1p0_0p0_16p0.json","10.95","true","tx5twdeae8g","","2773","https://mcdermottlab.mit.edu/mturk_stimuli/bjmedina/nhs-region-n_80/mem_stim_2.wav","3","main","","","true","mem_stim_2.wav","false","16","","0","miss"
"","","","","","html-keyboard-response","152","497713","0.0-10.0-1.59","https://mcdermottlab.mit.edu/mturk_stimuli/bjmedina/nhs-region-n_80/sequences/isi_16/len120/seq063_len120_s70_isi-1p0_0p0_16p0.json","10.95","true","tx5twdeae8g","","null","<span style=""font-size: 40px"">+</span>","null","","","","","","","","","",""
"","","","","","audio-button-response","153","500566","0.0-10.0-2.59","https://mcdermottlab.mit.edu/mturk_stimuli/bjmedina/nhs-region-n_80/sequences/isi_16/len120/seq063_len120_s70_isi-1p0_0p0_16p0.json","10.95","true","tx5twdeae8g","","2853","https://mcdermottlab.mit.edu/mturk_stimuli/bjmedina/nhs-region-n_80/mem_stim_55.wav","3","main","","","true","mem_stim_55.wav","false","16","","0","miss"
"","","","","","html-keyboard-response","154","500624","0.0-10.0-1.60","https://mcdermottlab.mit.edu/mturk_stimuli/bjmedina/nhs-region-n_80/sequences/isi_16/len120/seq063_len120_s70_isi-1p0_0p0_16p0.json","10.95","true","tx5twdeae8g","","null","<span style=""font-size: 40px"">+</span>","null","","","","","","","","","",""
"","","","","","audio-button-response","155","503436","0.0-10.0-2.60","https://mcdermottlab.mit.edu/mturk_stimuli/bjmedina/nhs-region-n_80/sequences/isi_16/len120/seq063_len120_s70_isi-1p0_0p0_16p0.json","10.95","true","tx5twdeae8g","","2811","https://mcdermottlab.mit.edu/mturk_stimuli/bjmedina/nhs-region-n_80/mem_stim_72.wav","2","main","","","true","mem_stim_72.wav","false","16","","0","miss"
"","","","","","html-keyboard-response","156","503496","0.0-10.0-1.61","https://mcdermottlab.mit.edu/mturk_stimuli/bjmedina/nhs-region-n_80/sequences/isi_16/len120/seq063_len120_s70_isi-1p0_0p0_16p0.json","10.95","true","tx5twdeae8g","","null","<span style=""font-size: 40px"">+</span>","null","","","","","","","","","",""
"","","","","","audio-button-response","157","506313","0.0-10.0-2.61","https://mcdermottlab.mit.edu/mturk_stimuli/bjmedina/nhs-region-n_80/sequences/isi_16/len120/seq063_len120_s70_isi-1p0_0p0_16p0.json","10.95","true","tx5twdeae8g","","2816","https://mcdermottlab.mit.edu/mturk_stimuli/bjmedina/nhs-region-n_80/mem_stim_6.wav","2","main","","","true","mem_stim_6.wav","false","16","","0","miss"
"","","","","","html-keyboard-response","158","506369","0.0-10.0-1.62","https://mcdermottlab.mit.edu/mturk_stimuli/bjmedina/nhs-region-n_80/sequences/isi_16/len120/seq063_len120_s70_isi-1p0_0p0_16p0.json","10.95","true","tx5twdeae8g","","null","<span style=""font-size: 40px"">+</span>","null","","","","","","","","","",""
"","","","","","audio-button-response","159","510016","0.0-10.0-2.62","https://mcdermottlab.mit.edu/mturk_stimuli/bjmedina/nhs-region-n_80/sequences/isi_16/len120/seq063_len120_s70_isi-1p0_0p0_16p0.json","10.95","true","tx5twdeae8g","","3136","https://mcdermottlab.mit.edu/mturk_stimuli/bjmedina/nhs-region-n_80/mem_stim_1.wav","1","main","","","false","mem_stim_1.wav","false","-1","","0","false_alarm"
"","","","","","html-keyboard-response","160","510075","0.0-10.0-1.63","https://mcdermottlab.mit.edu/mturk_stimuli/bjmedina/nhs-region-n_80/sequences/isi_16/len120/seq063_len120_s70_isi-1p0_0p0_16p0.json","10.95","true","tx5twdeae8g","","null","<span style=""font-size: 40px"">+</span>","null","","","","","","","","","",""
"","","","","","audio-button-response","161","513353","0.0-10.0-2.63","https://mcdermottlab.mit.edu/mturk_stimuli/bjmedina/nhs-region-n_80/sequences/isi_16/len120/seq063_len120_s70_isi-1p0_0p0_16p0.json","10.95","true","tx5twdeae8g","","3275","https://mcdermottlab.mit.edu/mturk_stimuli/bjmedina/nhs-region-n_80/mem_stim_38.wav","3","main","","","true","mem_stim_38.wav","false","16","","0","miss"
"","","","","","html-keyboard-response","162","513413","0.0-10.0-1.64","https://mcdermottlab.mit.edu/mturk_stimuli/bjmedina/nhs-region-n_80/sequences/isi_16/len120/seq063_len120_s70_isi-1p0_0p0_16p0.json","10.95","true","tx5twdeae8g","","null","<span style=""font-size: 40px"">+</span>","null","","","","","","","","","",""
"","","","","","audio-button-response","163","516884","0.0-10.0-2.64","https://mcdermottlab.mit.edu/mturk_stimuli/bjmedina/nhs-region-n_80/sequences/isi_16/len120/seq063_len120_s70_isi-1p0_0p0_16p0.json","10.95","true","tx5twdeae8g","","2987","https://mcdermottlab.mit.edu/mturk_stimuli/bjmedina/nhs-region-n_80/mem_stim_13.wav","0","main","","","false","mem_stim_13.wav","false","-1","","1","correct_rejection"
"","","","","","html-keyboard-response","164","516945","0.0-10.0-1.65","https://mcdermottlab.mit.edu/mturk_stimuli/bjmedina/nhs-region-n_80/sequences/isi_16/len120/seq063_len120_s70_isi-1p0_0p0_16p0.json","10.95","true","tx5twdeae8g","","null","<span style=""font-size: 40px"">+</span>","null","","","","","","","","","",""
"","","","","","audio-button-response","165","520518","0.0-10.0-2.65","https://mcdermottlab.mit.edu/mturk_stimuli/bjmedina/nhs-region-n_80/sequences/isi_16/len120/seq063_len120_s70_isi-1p0_0p0_16p0.json","10.95","true","tx5twdeae8g","","3573","https://mcdermottlab.mit.edu/mturk_stimuli/bjmedina/nhs-region-n_80/mem_stim_5.wav","3","main","","","true","mem_stim_5.wav","false","16","","0","miss"
"","","","","","html-keyboard-response","166","520580","0.0-10.0-1.66","https://mcdermottlab.mit.edu/mturk_stimuli/bjmedina/nhs-region-n_80/sequences/isi_16/len120/seq063_len120_s70_isi-1p0_0p0_16p0.json","10.95","true","tx5twdeae8g","","null","<span style=""font-size: 40px"">+</span>","null","","","","","","","","","",""
"","","","","","audio-button-response","167","526617","0.0-10.0-2.66","https://mcdermottlab.mit.edu/mturk_stimuli/bjmedina/nhs-region-n_80/sequences/isi_16/len120/seq063_len120_s70_isi-1p0_0p0_16p0.json","10.95","true","tx5twdeae8g","","5600","https://mcdermottlab.mit.edu/mturk_stimuli/bjmedina/nhs-region-n_80/mem_stim_31.wav","1","main","","","false","mem_stim_31.wav","false","-1","","0","false_alarm"
"","","","","","html-keyboard-response","168","526682","0.0-10.0-1.67","https://mcdermottlab.mit.edu/mturk_stimuli/bjmedina/nhs-region-n_80/sequences/isi_16/len120/seq063_len120_s70_isi-1p0_0p0_16p0.json","10.95","true","tx5twdeae8g","","null","<span style=""font-size: 40px"">+</span>","null","","","","","","","","","",""
"","","","","","audio-button-response","169","530867","0.0-10.0-2.67","https://mcdermottlab.mit.edu/mturk_stimuli/bjmedina/nhs-region-n_80/sequences/isi_16/len120/seq063_len120_s70_isi-1p0_0p0_16p0.json","10.95","true","tx5twdeae8g","","3664","https://mcdermottlab.mit.edu/mturk_stimuli/bjmedina/nhs-region-n_80/mem_stim_21.wav","1","main","","","false","mem_stim_21.wav","false","-1","","0","false_alarm"
"","","","","","html-keyboard-response","170","530928","0.0-10.0-1.68","https://mcdermottlab.mit.edu/mturk_stimuli/bjmedina/nhs-region-n_80/sequences/isi_16/len120/seq063_len120_s70_isi-1p0_0p0_16p0.json","10.95","true","tx5twdeae8g","","null","<span style=""font-size: 40px"">+</span>","null","","","","","","","","","",""
"","","","","","audio-button-response","171","533701","0.0-10.0-2.68","https://mcdermottlab.mit.edu/mturk_stimuli/bjmedina/nhs-region-n_80/sequences/isi_16/len120/seq063_len120_s70_isi-1p0_0p0_16p0.json","10.95","true","tx5twdeae8g","","2768","https://mcdermottlab.mit.edu/mturk_stimuli/bjmedina/nhs-region-n_80/mem_stim_21.wav","3","main","","","true","mem_stim_21.wav","true","0","","0","miss"
"","","","","","html-keyboard-response","172","533761","0.0-10.0-1.69","https://mcdermottlab.mit.edu/mturk_stimuli/bjmedina/nhs-region-n_80/sequences/isi_16/len120/seq063_len120_s70_isi-1p0_0p0_16p0.json","10.95","true","tx5twdeae8g","","null","<span style=""font-size: 40px"">+</span>","null","","","","","","","","","",""
"","","","","","audio-button-response","173","537400","0.0-10.0-2.69","https://mcdermottlab.mit.edu/mturk_stimuli/bjmedina/nhs-region-n_80/sequences/isi_16/len120/seq063_len120_s70_isi-1p0_0p0_16p0.json","10.95","true","tx5twdeae8g","","3189","https://mcdermottlab.mit.edu/mturk_stimuli/bjmedina/nhs-region-n_80/mem_stim_24.wav","1","main","","","false","mem_stim_24.wav","false","-1","","0","false_alarm"
"","","","","","html-keyboard-response","174","537462","0.0-10.0-1.70","https://mcdermottlab.mit.edu/mturk_stimuli/bjmedina/nhs-region-n_80/sequences/isi_16/len120/seq063_len120_s70_isi-1p0_0p0_16p0.json","10.95","true","tx5twdeae8g","","null","<span style=""font-size: 40px"">+</span>","null","","","","","","","","","",""
"","","","","","audio-button-response","175","542867","0.0-10.0-2.70","https://mcdermottlab.mit.edu/mturk_stimuli/bjmedina/nhs-region-n_80/sequences/isi_16/len120/seq063_len120_s70_isi-1p0_0p0_16p0.json","10.95","true","tx5twdeae8g","","4864","https://mcdermottlab.mit.edu/mturk_stimuli/bjmedina/nhs-region-n_80/mem_stim_0.wav","1","main","","","false","mem_stim_0.wav","false","-1","","0","false_alarm"
"","","","","","html-keyboard-response","176","542926","0.0-10.0-1.71","https://mcdermottlab.mit.edu/mturk_stimuli/bjmedina/nhs-region-n_80/sequences/isi_16/len120/seq063_len120_s70_isi-1p0_0p0_16p0.json","10.95","true","tx5twdeae8g","","null","<span style=""font-size: 40px"">+</span>","null","","","","","","","","","",""
"","","","","","audio-button-response","177","546533","0.0-10.0-2.71","https://mcdermottlab.mit.edu/mturk_stimuli/bjmedina/nhs-region-n_80/sequences/isi_16/len120/seq063_len120_s70_isi-1p0_0p0_16p0.json","10.95","true","tx5twdeae8g","","3109","https://mcdermottlab.mit.edu/mturk_stimuli/bjmedina/nhs-region-n_80/mem_stim_3.wav","2","main","","","false","mem_stim_3.wav","false","-1","","1","correct_rejection"
"","","","","","html-keyboard-response","178","546595","0.0-10.0-1.72","https://mcdermottlab.mit.edu/mturk_stimuli/bjmedina/nhs-region-n_80/sequences/isi_16/len120/seq063_len120_s70_isi-1p0_0p0_16p0.json","10.95","true","tx5twdeae8g","","null","<span style=""font-size: 40px"">+</span>","null","","","","","","","","","",""
"","","","","","audio-button-response","179","550528","0.0-10.0-2.72","https://mcdermottlab.mit.edu/mturk_stimuli/bjmedina/nhs-region-n_80/sequences/isi_16/len120/seq063_len120_s70_isi-1p0_0p0_16p0.json","10.95","true","tx5twdeae8g","","2811","https://mcdermottlab.mit.edu/mturk_stimuli/bjmedina/nhs-region-n_80/mem_stim_75.wav","0","main","","","false","mem_stim_75.wav","false","-1","","1","correct_rejection"
"","","","","","html-keyboard-response","180","550584","0.0-10.0-1.73","https://mcdermottlab.mit.edu/mturk_stimuli/bjmedina/nhs-region-n_80/sequences/isi_16/len120/seq063_len120_s70_isi-1p0_0p0_16p0.json","10.95","true","tx5twdeae8g","","null","<span style=""font-size: 40px"">+</span>","null","","","","","","","","","",""
"","","","","","audio-button-response","181","553250","0.0-10.0-2.73","https://mcdermottlab.mit.edu/mturk_stimuli/bjmedina/nhs-region-n_80/sequences/isi_16/len120/seq063_len120_s70_isi-1p0_0p0_16p0.json","10.95","true","tx5twdeae8g","","2661","https://mcdermottlab.mit.edu/mturk_stimuli/bjmedina/nhs-region-n_80/mem_stim_75.wav","3","main","","","true","mem_stim_75.wav","true","0","","0","miss"
"","","","","","html-keyboard-response","182","553311","0.0-10.0-1.74","https://mcdermottlab.mit.edu/mturk_stimuli/bjmedina/nhs-region-n_80/sequences/isi_16/len120/seq063_len120_s70_isi-1p0_0p0_16p0.json","10.95","true","tx5twdeae8g","","null","<span style=""font-size: 40px"">+</span>","null","","","","","","","","","",""
"","","","","","audio-button-response","183","556350","0.0-10.0-2.74","https://mcdermottlab.mit.edu/mturk_stimuli/bjmedina/nhs-region-n_80/sequences/isi_16/len120/seq063_len120_s70_isi-1p0_0p0_16p0.json","10.95","true","tx5twdeae8g","","3035","https://mcdermottlab.mit.edu/mturk_stimuli/bjmedina/nhs-region-n_80/mem_stim_66.wav","3","main","","","true","mem_stim_66.wav","false","16","","0","miss"
"","","","","","html-keyboard-response","184","556409","0.0-10.0-1.75","https://mcdermottlab.mit.edu/mturk_stimuli/bjmedina/nhs-region-n_80/sequences/isi_16/len120/seq063_len120_s70_isi-1p0_0p0_16p0.json","10.95","true","tx5twdeae8g","","null","<span style=""font-size: 40px"">+</span>","null","","","","","","","","","",""
"","","","","","audio-button-response","185","561428","0.0-10.0-2.75","https://mcdermottlab.mit.edu/mturk_stimuli/bjmedina/nhs-region-n_80/sequences/isi_16/len120/seq063_len120_s70_isi-1p0_0p0_16p0.json","10.95","true","tx5twdeae8g","","4539","https://mcdermottlab.mit.edu/mturk_stimuli/bjmedina/nhs-region-n_80/mem_stim_70.wav","2","main","","","false","mem_stim_70.wav","false","-1","","1","correct_rejection"
"","","","","","html-keyboard-response","186","561484","0.0-10.0-1.76","https://mcdermottlab.mit.edu/mturk_stimuli/bjmedina/nhs-region-n_80/sequences/isi_16/len120/seq063_len120_s70_isi-1p0_0p0_16p0.json","10.95","true","tx5twdeae8g","","null","<span style=""font-size: 40px"">+</span>","null","","","","","","","","","",""
"","","","","","audio-button-response","187","564203","0.0-10.0-2.76","https://mcdermottlab.mit.edu/mturk_stimuli/bjmedina/nhs-region-n_80/sequences/isi_16/len120/seq063_len120_s70_isi-1p0_0p0_16p0.json","10.95","true","tx5twdeae8g","","2720","https://mcdermottlab.mit.edu/mturk_stimuli/bjmedina/nhs-region-n_80/mem_stim_70.wav","3","main","","","true","mem_stim_70.wav","true","0","","0","miss"
"","","","","","html-keyboard-response","188","564266","0.0-10.0-1.77","https://mcdermottlab.mit.edu/mturk_stimuli/bjmedina/nhs-region-n_80/sequences/isi_16/len120/seq063_len120_s70_isi-1p0_0p0_16p0.json","10.95","true","tx5twdeae8g","","null","<span style=""font-size: 40px"">+</span>","null","","","","","","","","","",""
"","","","","","audio-button-response","189","570398","0.0-10.0-2.77","https://mcdermottlab.mit.edu/mturk_stimuli/bjmedina/nhs-region-n_80/sequences/isi_16/len120/seq063_len120_s70_isi-1p0_0p0_16p0.json","10.95","true","tx5twdeae8g","","5525","https://mcdermottlab.mit.edu/mturk_stimuli/bjmedina/nhs-region-n_80/mem_stim_45.wav","2","main","","","false","mem_stim_45.wav","false","-1","","1","correct_rejection"
"","","","","","html-keyboard-response","190","570457","0.0-10.0-1.78","https://mcdermottlab.mit.edu/mturk_stimuli/bjmedina/nhs-region-n_80/sequences/isi_16/len120/seq063_len120_s70_isi-1p0_0p0_16p0.json","10.95","true","tx5twdeae8g","","null","<span style=""font-size: 40px"">+</span>","null","","","","","","","","","",""
"","","","","","audio-button-response","191","574166","0.0-10.0-2.78","https://mcdermottlab.mit.edu/mturk_stimuli/bjmedina/nhs-region-n_80/sequences/isi_16/len120/seq063_len120_s70_isi-1p0_0p0_16p0.json","10.95","true","tx5twdeae8g","","3136","https://mcdermottlab.mit.edu/mturk_stimuli/bjmedina/nhs-region-n_80/mem_stim_8.wav","1","main","","","false","mem_stim_8.wav","false","-1","","0","false_alarm"
"","","","","","html-keyboard-response","192","574230","0.0-10.0-1.79","https://mcdermottlab.mit.edu/mturk_stimuli/bjmedina/nhs-region-n_80/sequences/isi_16/len120/seq063_len120_s70_isi-1p0_0p0_16p0.json","10.95","true","tx5twdeae8g","","null","<span style=""font-size: 40px"">+</span>","null","","","","","","","","","",""
"","","","","","audio-button-response","193","576932","0.0-10.0-2.79","https://mcdermottlab.mit.edu/mturk_stimuli/bjmedina/nhs-region-n_80/sequences/isi_16/len120/seq063_len120_s70_isi-1p0_0p0_16p0.json","10.95","true","tx5twdeae8g","","2699","https://mcdermottlab.mit.edu/mturk_stimuli/bjmedina/nhs-region-n_80/mem_stim_1.wav","3","main","","","true","mem_stim_1.wav","false","16","","0","miss"
"","","","","","html-keyboard-response","194","576993","0.0-10.0-1.80","https://mcdermottlab.mit.edu/mturk_stimuli/bjmedina/nhs-region-n_80/sequences/isi_16/len120/seq063_len120_s70_isi-1p0_0p0_16p0.json","10.95","true","tx5twdeae8g","","null","<span style=""font-size: 40px"">+</span>","null","","","","","","","","","",""
"","","","","","audio-button-response","195","581298","0.0-10.0-2.80","https://mcdermottlab.mit.edu/mturk_stimuli/bjmedina/nhs-region-n_80/sequences/isi_16/len120/seq063_len120_s70_isi-1p0_0p0_16p0.json","10.95","true","tx5twdeae8g","","3888","https://mcdermottlab.mit.edu/mturk_stimuli/bjmedina/nhs-region-n_80/mem_stim_14.wav","2","main","","","false","mem_stim_14.wav","false","-1","","1","correct_rejection"
"","","","","","html-keyboard-response","196","581360","0.0-10.0-1.81","https://mcdermottlab.mit.edu/mturk_stimuli/bjmedina/nhs-region-n_80/sequences/isi_16/len120/seq063_len120_s70_isi-1p0_0p0_16p0.json","10.95","true","tx5twdeae8g","","null","<span style=""font-size: 40px"">+</span>","null","","","","","","","","","",""
"","","","","","audio-button-response","197","585153","0.0-10.0-2.81","https://mcdermottlab.mit.edu/mturk_stimuli/bjmedina/nhs-region-n_80/sequences/isi_16/len120/seq063_len120_s70_isi-1p0_0p0_16p0.json","10.95","true","tx5twdeae8g","","3237","https://mcdermottlab.mit.edu/mturk_stimuli/bjmedina/nhs-region-n_80/mem_stim_67.wav","1","main","","","false","mem_stim_67.wav","false","-1","","0","false_alarm"
"","","","","","html-keyboard-response","198","585217","0.0-10.0-1.82","https://mcdermottlab.mit.edu/mturk_stimuli/bjmedina/nhs-region-n_80/sequences/isi_16/len120/seq063_len120_s70_isi-1p0_0p0_16p0.json","10.95","true","tx5twdeae8g","","null","<span style=""font-size: 40px"">+</span>","null","","","","","","","","","",""
"","","","","","audio-button-response","199","588785","0.0-10.0-2.82","https://mcdermottlab.mit.edu/mturk_stimuli/bjmedina/nhs-region-n_80/sequences/isi_16/len120/seq063_len120_s70_isi-1p0_0p0_16p0.json","10.95","true","tx5twdeae8g","","3157","https://mcdermottlab.mit.edu/mturk_stimuli/bjmedina/nhs-region-n_80/mem_stim_68.wav","1","main","","","false","mem_stim_68.wav","false","-1","","0","false_alarm"
"","","","","","html-keyboard-response","200","588847","0.0-10.0-1.83","https://mcdermottlab.mit.edu/mturk_stimuli/bjmedina/nhs-region-n_80/sequences/isi_16/len120/seq063_len120_s70_isi-1p0_0p0_16p0.json","10.95","true","tx5twdeae8g","","null","<span style=""font-size: 40px"">+</span>","null","","","","","","","","","",""
"","","","","","audio-button-response","201","592617","0.0-10.0-2.83","https://mcdermottlab.mit.edu/mturk_stimuli/bjmedina/nhs-region-n_80/sequences/isi_16/len120/seq063_len120_s70_isi-1p0_0p0_16p0.json","10.95","true","tx5twdeae8g","","3765","https://mcdermottlab.mit.edu/mturk_stimuli/bjmedina/nhs-region-n_80/mem_stim_31.wav","2","main","","","true","mem_stim_31.wav","false","16","","0","miss"
"","","","","","html-keyboard-response","202","592677","0.0-10.0-1.84","https://mcdermottlab.mit.edu/mturk_stimuli/bjmedina/nhs-region-n_80/sequences/isi_16/len120/seq063_len120_s70_isi-1p0_0p0_16p0.json","10.95","true","tx5twdeae8g","","null","<span style=""font-size: 40px"">+</span>","null","","","","","","","","","",""
"","","","","","audio-button-response","203","596370","0.0-10.0-2.84","https://mcdermottlab.mit.edu/mturk_stimuli/bjmedina/nhs-region-n_80/sequences/isi_16/len120/seq063_len120_s70_isi-1p0_0p0_16p0.json","10.95","true","tx5twdeae8g","","2885","https://mcdermottlab.mit.edu/mturk_stimuli/bjmedina/nhs-region-n_80/mem_stim_36.wav","3","main","","","false","mem_stim_36.wav","false","-1","","1","correct_rejection"
"","","","","","html-keyboard-response","204","596432","0.0-10.0-1.85","https://mcdermottlab.mit.edu/mturk_stimuli/bjmedina/nhs-region-n_80/sequences/isi_16/len120/seq063_len120_s70_isi-1p0_0p0_16p0.json","10.95","true","tx5twdeae8g","","null","<span style=""font-size: 40px"">+</span>","null","","","","","","","","","",""
"","","","","","audio-button-response","205","599916","0.0-10.0-2.85","https://mcdermottlab.mit.edu/mturk_stimuli/bjmedina/nhs-region-n_80/sequences/isi_16/len120/seq063_len120_s70_isi-1p0_0p0_16p0.json","10.95","true","tx5twdeae8g","","3019","https://mcdermottlab.mit.edu/mturk_stimuli/bjmedina/nhs-region-n_80/mem_stim_65.wav","1","main","","","false","mem_stim_65.wav","false","-1","","0","false_alarm"
"","","","","","html-keyboard-response","206","599977","0.0-10.0-1.86","https://mcdermottlab.mit.edu/mturk_stimuli/bjmedina/nhs-region-n_80/sequences/isi_16/len120/seq063_len120_s70_isi-1p0_0p0_16p0.json","10.95","true","tx5twdeae8g","","null","<span style=""font-size: 40px"">+</span>","null","","","","","","","","","",""
"","","","","","audio-button-response","207","606451","0.0-10.0-2.86","https://mcdermottlab.mit.edu/mturk_stimuli/bjmedina/nhs-region-n_80/sequences/isi_16/len120/seq063_len120_s70_isi-1p0_0p0_16p0.json","10.95","true","tx5twdeae8g","","6123","https://mcdermottlab.mit.edu/mturk_stimuli/bjmedina/nhs-region-n_80/mem_stim_29.wav","2","main","","","false","mem_stim_29.wav","false","-1","","1","correct_rejection"
"","","","","","html-keyboard-response","208","606513","0.0-10.0-1.87","https://mcdermottlab.mit.edu/mturk_stimuli/bjmedina/nhs-region-n_80/sequences/isi_16/len120/seq063_len120_s70_isi-1p0_0p0_16p0.json","10.95","true","tx5twdeae8g","","null","<span style=""font-size: 40px"">+</span>","null","","","","","","","","","",""
"","","","","","audio-button-response","209","612967","0.0-10.0-2.87","https://mcdermottlab.mit.edu/mturk_stimuli/bjmedina/nhs-region-n_80/sequences/isi_16/len120/seq063_len120_s70_isi-1p0_0p0_16p0.json","10.95","true","tx5twdeae8g","","4693","https://mcdermottlab.mit.edu/mturk_stimuli/bjmedina/nhs-region-n_80/mem_stim_56.wav","3","main","","","false","mem_stim_56.wav","false","-1","","1","correct_rejection"
"","","","","","html-keyboard-response","210","613026","0.0-10.0-1.88","https://mcdermottlab.mit.edu/mturk_stimuli/bjmedina/nhs-region-n_80/sequences/isi_16/len120/seq063_len120_s70_isi-1p0_0p0_16p0.json","10.95","true","tx5twdeae8g","","null","<span style=""font-size: 40px"">+</span>","null","","","","","","","","","",""
"","","","","","audio-button-response","211","616267","0.0-10.0-2.88","https://mcdermottlab.mit.edu/mturk_stimuli/bjmedina/nhs-region-n_80/sequences/isi_16/len120/seq063_len120_s70_isi-1p0_0p0_16p0.json","10.95","true","tx5twdeae8g","","3243","https://mcdermottlab.mit.edu/mturk_stimuli/bjmedina/nhs-region-n_80/mem_stim_3.wav","3","main","","","true","mem_stim_3.wav","false","16","","0","miss"
"","","","","","html-keyboard-response","212","616328","0.0-10.0-1.89","https://mcdermottlab.mit.edu/mturk_stimuli/bjmedina/nhs-region-n_80/sequences/isi_16/len120/seq063_len120_s70_isi-1p0_0p0_16p0.json","10.95","true","tx5twdeae8g","","null","<span style=""font-size: 40px"">+</span>","null","","","","","","","","","",""
"","","","","","audio-button-response","213","621151","0.0-10.0-2.89","https://mcdermottlab.mit.edu/mturk_stimuli/bjmedina/nhs-region-n_80/sequences/isi_16/len120/seq063_len120_s70_isi-1p0_0p0_16p0.json","10.95","true","tx5twdeae8g","","4261","https://mcdermottlab.mit.edu/mturk_stimuli/bjmedina/nhs-region-n_80/mem_stim_74.wav","0","main","","","false","mem_stim_74.wav","false","-1","","1","correct_rejection"
"","","","","","html-keyboard-response","214","621220","0.0-10.0-1.90","https://mcdermottlab.mit.edu/mturk_stimuli/bjmedina/nhs-region-n_80/sequences/isi_16/len120/seq063_len120_s70_isi-1p0_0p0_16p0.json","10.95","true","tx5twdeae8g","","null","<span style=""font-size: 40px"">+</span>","null","","","","","","","","","",""
"","","","","","audio-button-response","215","623985","0.0-10.0-2.90","https://mcdermottlab.mit.edu/mturk_stimuli/bjmedina/nhs-region-n_80/sequences/isi_16/len120/seq063_len120_s70_isi-1p0_0p0_16p0.json","10.95","true","tx5twdeae8g","","2768","https://mcdermottlab.mit.edu/mturk_stimuli/bjmedina/nhs-region-n_80/mem_stim_74.wav","3","main","","","true","mem_stim_74.wav","true","0","","0","miss"
"","","","","","html-keyboard-response","216","624047","0.0-10.0-1.91","https://mcdermottlab.mit.edu/mturk_stimuli/bjmedina/nhs-region-n_80/sequences/isi_16/len120/seq063_len120_s70_isi-1p0_0p0_16p0.json","10.95","true","tx5twdeae8g","","null","<span style=""font-size: 40px"">+</span>","null","","","","","","","","","",""
"","","","","","audio-button-response","217","628719","0.0-10.0-2.91","https://mcdermottlab.mit.edu/mturk_stimuli/bjmedina/nhs-region-n_80/sequences/isi_16/len120/seq063_len120_s70_isi-1p0_0p0_16p0.json","10.95","true","tx5twdeae8g","","4128","https://mcdermottlab.mit.edu/mturk_stimuli/bjmedina/nhs-region-n_80/mem_stim_33.wav","1","main","","","false","mem_stim_33.wav","false","-1","","0","false_alarm"
"","","","","","html-keyboard-response","218","628781","0.0-10.0-1.92","https://mcdermottlab.mit.edu/mturk_stimuli/bjmedina/nhs-region-n_80/sequences/isi_16/len120/seq063_len120_s70_isi-1p0_0p0_16p0.json","10.95","true","tx5twdeae8g","","null","<span style=""font-size: 40px"">+</span>","null","","","","","","","","","",""
"","","","","","audio-button-response","219","634400","0.0-10.0-2.92","https://mcdermottlab.mit.edu/mturk_stimuli/bjmedina/nhs-region-n_80/sequences/isi_16/len120/seq063_len120_s70_isi-1p0_0p0_16p0.json","10.95","true","tx5twdeae8g","","5195","https://mcdermottlab.mit.edu/mturk_stimuli/bjmedina/nhs-region-n_80/mem_stim_40.wav","2","main","","","false","mem_stim_40.wav","false","-1","","1","correct_rejection"
"","","","","","html-keyboard-response","220","634464","0.0-10.0-1.93","https://mcdermottlab.mit.edu/mturk_stimuli/bjmedina/nhs-region-n_80/sequences/isi_16/len120/seq063_len120_s70_isi-1p0_0p0_16p0.json","10.95","true","tx5twdeae8g","","null","<span style=""font-size: 40px"">+</span>","null","","","","","","","","","",""
"","","","","","audio-button-response","221","638468","0.0-10.0-2.93","https://mcdermottlab.mit.edu/mturk_stimuli/bjmedina/nhs-region-n_80/sequences/isi_16/len120/seq063_len120_s70_isi-1p0_0p0_16p0.json","10.95","true","tx5twdeae8g","","3520","https://mcdermottlab.mit.edu/mturk_stimuli/bjmedina/nhs-region-n_80/mem_stim_60.wav","0","main","","","false","mem_stim_60.wav","false","-1","","1","correct_rejection"
"","","","","","html-keyboard-response","222","638530","0.0-10.0-1.94","https://mcdermottlab.mit.edu/mturk_stimuli/bjmedina/nhs-region-n_80/sequences/isi_16/len120/seq063_len120_s70_isi-1p0_0p0_16p0.json","10.95","true","tx5twdeae8g","","null","<span style=""font-size: 40px"">+</span>","null","","","","","","","","","",""
"","","","","","audio-button-response","223","641666","0.0-10.0-2.94","https://mcdermottlab.mit.edu/mturk_stimuli/bjmedina/nhs-region-n_80/sequences/isi_16/len120/seq063_len120_s70_isi-1p0_0p0_16p0.json","10.95","true","tx5twdeae8g","","3136","https://mcdermottlab.mit.edu/mturk_stimuli/bjmedina/nhs-region-n_80/mem_stim_45.wav","3","main","","","true","mem_stim_45.wav","false","16","","0","miss"
"","","","","","html-keyboard-response","224","641728","0.0-10.0-1.95","https://mcdermottlab.mit.edu/mturk_stimuli/bjmedina/nhs-region-n_80/sequences/isi_16/len120/seq063_len120_s70_isi-1p0_0p0_16p0.json","10.95","true","tx5twdeae8g","","null","<span style=""font-size: 40px"">+</span>","null","","","","","","","","","",""
"","","","","","audio-button-response","225","644400","0.0-10.0-2.95","https://mcdermottlab.mit.edu/mturk_stimuli/bjmedina/nhs-region-n_80/sequences/isi_16/len120/seq063_len120_s70_isi-1p0_0p0_16p0.json","10.95","true","tx5twdeae8g","","2672","https://mcdermottlab.mit.edu/mturk_stimuli/bjmedina/nhs-region-n_80/mem_stim_8.wav","3","main","","","true","mem_stim_8.wav","false","16","","0","miss"
"","","","","","html-keyboard-response","226","644462","0.0-10.0-1.96","https://mcdermottlab.mit.edu/mturk_stimuli/bjmedina/nhs-region-n_80/sequences/isi_16/len120/seq063_len120_s70_isi-1p0_0p0_16p0.json","10.95","true","tx5twdeae8g","","null","<span style=""font-size: 40px"">+</span>","null","","","","","","","","","",""
"","","","","","audio-button-response","227","647556","0.0-10.0-2.96","https://mcdermottlab.mit.edu/mturk_stimuli/bjmedina/nhs-region-n_80/sequences/isi_16/len120/seq063_len120_s70_isi-1p0_0p0_16p0.json","10.95","true","tx5twdeae8g","","2597","https://mcdermottlab.mit.edu/mturk_stimuli/bjmedina/nhs-region-n_80/mem_stim_54.wav","2","main","","","false","mem_stim_54.wav","false","-1","","1","correct_rejection"
"","","","","","html-keyboard-response","228","647616","0.0-10.0-1.97","https://mcdermottlab.mit.edu/mturk_stimuli/bjmedina/nhs-region-n_80/sequences/isi_16/len120/seq063_len120_s70_isi-1p0_0p0_16p0.json","10.95","true","tx5twdeae8g","","null","<span style=""font-size: 40px"">+</span>","null","","","","","","","","","",""
"","","","","","audio-button-response","229","650984","0.0-10.0-2.97","https://mcdermottlab.mit.edu/mturk_stimuli/bjmedina/nhs-region-n_80/sequences/isi_16/len120/seq063_len120_s70_isi-1p0_0p0_16p0.json","10.95","true","tx5twdeae8g","","3365","https://mcdermottlab.mit.edu/mturk_stimuli/bjmedina/nhs-region-n_80/mem_stim_14.wav","2","main","","","true","mem_stim_14.wav","false","16","","0","miss"
"","","","","","html-keyboard-response","230","651046","0.0-10.0-1.98","https://mcdermottlab.mit.edu/mturk_stimuli/bjmedina/nhs-region-n_80/sequences/isi_16/len120/seq063_len120_s70_isi-1p0_0p0_16p0.json","10.95","true","tx5twdeae8g","","null","<span style=""font-size: 40px"">+</span>","null","","","","","","","","","",""
"","","","","","audio-button-response","231","655417","0.0-10.0-2.98","https://mcdermottlab.mit.edu/mturk_stimuli/bjmedina/nhs-region-n_80/sequences/isi_16/len120/seq063_len120_s70_isi-1p0_0p0_16p0.json","10.95","true","tx5twdeae8g","","4368","https://mcdermottlab.mit.edu/mturk_stimuli/bjmedina/nhs-region-n_80/mem_stim_67.wav","2","main","","","true","mem_stim_67.wav","false","16","","0","miss"
"","","","","","html-keyboard-response","232","655478","0.0-10.0-1.99","https://mcdermottlab.mit.edu/mturk_stimuli/bjmedina/nhs-region-n_80/sequences/isi_16/len120/seq063_len120_s70_isi-1p0_0p0_16p0.json","10.95","true","tx5twdeae8g","","null","<span style=""font-size: 40px"">+</span>","null","","","","","","","","","",""
"","","","","","audio-button-response","233","660114","0.0-10.0-2.99","https://mcdermottlab.mit.edu/mturk_stimuli/bjmedina/nhs-region-n_80/sequences/isi_16/len120/seq063_len120_s70_isi-1p0_0p0_16p0.json","10.95","true","tx5twdeae8g","","4635","https://mcdermottlab.mit.edu/mturk_stimuli/bjmedina/nhs-region-n_80/mem_stim_68.wav","1","main","","","true","mem_stim_68.wav","false","16","","1","hit"
"","","","","","html-keyboard-response","234","660171","0.0-10.0-1.100","https://mcdermottlab.mit.edu/mturk_stimuli/bjmedina/nhs-region-n_80/sequences/isi_16/len120/seq063_len120_s70_isi-1p0_0p0_16p0.json","10.95","true","tx5twdeae8g","","null","<span style=""font-size: 40px"">+</span>","null","","","","","","","","","",""
"","","","","","audio-button-response","235","665173","0.0-10.0-2.100","https://mcdermottlab.mit.edu/mturk_stimuli/bjmedina/nhs-region-n_80/sequences/isi_16/len120/seq063_len120_s70_isi-1p0_0p0_16p0.json","10.95","true","tx5twdeae8g","","4512","https://mcdermottlab.mit.edu/mturk_stimuli/bjmedina/nhs-region-n_80/mem_stim_4.wav","1","main","","","false","mem_stim_4.wav","false","-1","","0","false_alarm"
"","","","","","html-keyboard-response","236","665230","0.0-10.0-1.101","https://mcdermottlab.mit.edu/mturk_stimuli/bjmedina/nhs-region-n_80/sequences/isi_16/len120/seq063_len120_s70_isi-1p0_0p0_16p0.json","10.95","true","tx5twdeae8g","","null","<span style=""font-size: 40px"">+</span>","null","","","","","","","","","",""
"","","","","","audio-button-response","237","668585","0.0-10.0-2.101","https://mcdermottlab.mit.edu/mturk_stimuli/bjmedina/nhs-region-n_80/sequences/isi_16/len120/seq063_len120_s70_isi-1p0_0p0_16p0.json","10.95","true","tx5twdeae8g","","2880","https://mcdermottlab.mit.edu/mturk_stimuli/bjmedina/nhs-region-n_80/mem_stim_48.wav","2","main","","","false","mem_stim_48.wav","false","-1","","1","correct_rejection"
"","","","","","html-keyboard-response","238","668646","0.0-10.0-1.102","https://mcdermottlab.mit.edu/mturk_stimuli/bjmedina/nhs-region-n_80/sequences/isi_16/len120/seq063_len120_s70_isi-1p0_0p0_16p0.json","10.95","true","tx5twdeae8g","","null","<span style=""font-size: 40px"">+</span>","null","","","","","","","","","",""
"","","","","","audio-button-response","239","672405","0.0-10.0-2.102","https://mcdermottlab.mit.edu/mturk_stimuli/bjmedina/nhs-region-n_80/sequences/isi_16/len120/seq063_len120_s70_isi-1p0_0p0_16p0.json","10.95","true","tx5twdeae8g","","3349","https://mcdermottlab.mit.edu/mturk_stimuli/bjmedina/nhs-region-n_80/mem_stim_18.wav","1","main","","","false","mem_stim_18.wav","false","-1","","0","false_alarm"
"","","","","","html-keyboard-response","240","672469","0.0-10.0-1.103","https://mcdermottlab.mit.edu/mturk_stimuli/bjmedina/nhs-region-n_80/sequences/isi_16/len120/seq063_len120_s70_isi-1p0_0p0_16p0.json","10.95","true","tx5twdeae8g","","null","<span style=""font-size: 40px"">+</span>","null","","","","","","","","","",""
"","","","","","audio-button-response","241","676701","0.0-10.0-2.103","https://mcdermottlab.mit.edu/mturk_stimuli/bjmedina/nhs-region-n_80/sequences/isi_16/len120/seq063_len120_s70_isi-1p0_0p0_16p0.json","10.95","true","tx5twdeae8g","","3765","https://mcdermottlab.mit.edu/mturk_stimuli/bjmedina/nhs-region-n_80/mem_stim_44.wav","0","main","","","false","mem_stim_44.wav","false","-1","","1","correct_rejection"
"","","","","","html-keyboard-response","242","676765","0.0-10.0-1.104","https://mcdermottlab.mit.edu/mturk_stimuli/bjmedina/nhs-region-n_80/sequences/isi_16/len120/seq063_len120_s70_isi-1p0_0p0_16p0.json","10.95","true","tx5twdeae8g","","null","<span style=""font-size: 40px"">+</span>","null","","","","","","","","","",""
"","","","","","audio-button-response","243","679486","0.0-10.0-2.104","https://mcdermottlab.mit.edu/mturk_stimuli/bjmedina/nhs-region-n_80/sequences/isi_16/len120/seq063_len120_s70_isi-1p0_0p0_16p0.json","10.95","true","tx5twdeae8g","","2720","https://mcdermottlab.mit.edu/mturk_stimuli/bjmedina/nhs-region-n_80/mem_stim_44.wav","3","main","","","true","mem_stim_44.wav","true","0","","0","miss"
"","","","","","html-keyboard-response","244","679546","0.0-10.0-1.105","https://mcdermottlab.mit.edu/mturk_stimuli/bjmedina/nhs-region-n_80/sequences/isi_16/len120/seq063_len120_s70_isi-1p0_0p0_16p0.json","10.95","true","tx5twdeae8g","","null","<span style=""font-size: 40px"">+</span>","null","","","","","","","","","",""
"","","","","","audio-button-response","245","683219","0.0-10.0-2.105","https://mcdermottlab.mit.edu/mturk_stimuli/bjmedina/nhs-region-n_80/sequences/isi_16/len120/seq063_len120_s70_isi-1p0_0p0_16p0.json","10.95","true","tx5twdeae8g","","3280","https://mcdermottlab.mit.edu/mturk_stimuli/bjmedina/nhs-region-n_80/mem_stim_79.wav","2","main","","","false","mem_stim_79.wav","false","-1","","1","correct_rejection"
"","","","","","html-keyboard-response","246","683280","0.0-10.0-1.106","https://mcdermottlab.mit.edu/mturk_stimuli/bjmedina/nhs-region-n_80/sequences/isi_16/len120/seq063_len120_s70_isi-1p0_0p0_16p0.json","10.95","true","tx5twdeae8g","","null","<span style=""font-size: 40px"">+</span>","null","","","","","","","","","",""
"","","","","","audio-button-response","247","687001","0.0-10.0-2.106","https://mcdermottlab.mit.edu/mturk_stimuli/bjmedina/nhs-region-n_80/sequences/isi_16/len120/seq063_len120_s70_isi-1p0_0p0_16p0.json","10.95","true","tx5twdeae8g","","3093","https://mcdermottlab.mit.edu/mturk_stimuli/bjmedina/nhs-region-n_80/mem_stim_37.wav","0","main","","","false","mem_stim_37.wav","false","-1","","1","correct_rejection"
"","","","","","html-keyboard-response","248","687062","0.0-10.0-1.107","https://mcdermottlab.mit.edu/mturk_stimuli/bjmedina/nhs-region-n_80/sequences/isi_16/len120/seq063_len120_s70_isi-1p0_0p0_16p0.json","10.95","true","tx5twdeae8g","","null","<span style=""font-size: 40px"">+</span>","null","","","","","","","","","",""
"","","","","","audio-button-response","249","691385","0.0-10.0-2.107","https://mcdermottlab.mit.edu/mturk_stimuli/bjmedina/nhs-region-n_80/sequences/isi_16/len120/seq063_len120_s70_isi-1p0_0p0_16p0.json","10.95","true","tx5twdeae8g","","3760","https://mcdermottlab.mit.edu/mturk_stimuli/bjmedina/nhs-region-n_80/mem_stim_10.wav","1","main","","","false","mem_stim_10.wav","false","-1","","0","false_alarm"
"","","","","","html-keyboard-response","250","691447","0.0-10.0-1.108","https://mcdermottlab.mit.edu/mturk_stimuli/bjmedina/nhs-region-n_80/sequences/isi_16/len120/seq063_len120_s70_isi-1p0_0p0_16p0.json","10.95","true","tx5twdeae8g","","null","<span style=""font-size: 40px"">+</span>","null","","","","","","","","","",""
"","","","","","audio-button-response","251","694535","0.0-10.0-2.108","https://mcdermottlab.mit.edu/mturk_stimuli/bjmedina/nhs-region-n_80/sequences/isi_16/len120/seq063_len120_s70_isi-1p0_0p0_16p0.json","10.95","true","tx5twdeae8g","","3088","https://mcdermottlab.mit.edu/mturk_stimuli/bjmedina/nhs-region-n_80/mem_stim_33.wav","3","main","","","true","mem_stim_33.wav","false","16","","0","miss"
"","","","","","html-keyboard-response","252","694607","0.0-10.0-1.109","https://mcdermottlab.mit.edu/mturk_stimuli/bjmedina/nhs-region-n_80/sequences/isi_16/len120/seq063_len120_s70_isi-1p0_0p0_16p0.json","10.95","true","tx5twdeae8g","","null","<span style=""font-size: 40px"">+</span>","null","","","","","","","","","",""
"","","","","","audio-button-response","253","698953","0.0-10.0-2.109","https://mcdermottlab.mit.edu/mturk_stimuli/bjmedina/nhs-region-n_80/sequences/isi_16/len120/seq063_len120_s70_isi-1p0_0p0_16p0.json","10.95","true","tx5twdeae8g","","3680","https://mcdermottlab.mit.edu/mturk_stimuli/bjmedina/nhs-region-n_80/mem_stim_11.wav","2","main","","","false","mem_stim_11.wav","false","-1","","1","correct_rejection"
"","","","","","html-keyboard-response","254","699016","0.0-10.0-1.110","https://mcdermottlab.mit.edu/mturk_stimuli/bjmedina/nhs-region-n_80/sequences/isi_16/len120/seq063_len120_s70_isi-1p0_0p0_16p0.json","10.95","true","tx5twdeae8g","","null","<span style=""font-size: 40px"">+</span>","null","","","","","","","","","",""
"","","","","","audio-button-response","255","702602","0.0-10.0-2.110","https://mcdermottlab.mit.edu/mturk_stimuli/bjmedina/nhs-region-n_80/sequences/isi_16/len120/seq063_len120_s70_isi-1p0_0p0_16p0.json","10.95","true","tx5twdeae8g","","3584","https://mcdermottlab.mit.edu/mturk_stimuli/bjmedina/nhs-region-n_80/mem_stim_60.wav","1","main","","","true","mem_stim_60.wav","false","16","","1","hit"
"","","","","","html-keyboard-response","256","702663","0.0-10.0-1.111","https://mcdermottlab.mit.edu/mturk_stimuli/bjmedina/nhs-region-n_80/sequences/isi_16/len120/seq063_len120_s70_isi-1p0_0p0_16p0.json","10.95","true","tx5twdeae8g","","null","<span style=""font-size: 40px"">+</span>","null","","","","","","","","","",""
"","","","","","audio-button-response","257","706318","0.0-10.0-2.111","https://mcdermottlab.mit.edu/mturk_stimuli/bjmedina/nhs-region-n_80/sequences/isi_16/len120/seq063_len120_s70_isi-1p0_0p0_16p0.json","10.95","true","tx5twdeae8g","","3205","https://mcdermottlab.mit.edu/mturk_stimuli/bjmedina/nhs-region-n_80/mem_stim_61.wav","0","main","","","false","mem_stim_61.wav","false","-1","","1","correct_rejection"
"","","","","","html-keyboard-response","258","706382","0.0-10.0-1.112","https://mcdermottlab.mit.edu/mturk_stimuli/bjmedina/nhs-region-n_80/sequences/isi_16/len120/seq063_len120_s70_isi-1p0_0p0_16p0.json","10.95","true","tx5twdeae8g","","null","<span style=""font-size: 40px"">+</span>","null","","","","","","","","","",""
"","","","","","audio-button-response","259","711897","0.0-10.0-2.112","https://mcdermottlab.mit.edu/mturk_stimuli/bjmedina/nhs-region-n_80/sequences/isi_16/len120/seq063_len120_s70_isi-1p0_0p0_16p0.json","10.95","true","tx5twdeae8g","","5061","https://mcdermottlab.mit.edu/mturk_stimuli/bjmedina/nhs-region-n_80/mem_stim_46.wav","2","main","","","false","mem_stim_46.wav","false","-1","","1","correct_rejection"
"","","","","","html-keyboard-response","260","711959","0.0-10.0-1.113","https://mcdermottlab.mit.edu/mturk_stimuli/bjmedina/nhs-region-n_80/sequences/isi_16/len120/seq063_len120_s70_isi-1p0_0p0_16p0.json","10.95","true","tx5twdeae8g","","null","<span style=""font-size: 40px"">+</span>","null","","","","","","","","","",""
"","","","","","audio-button-response","261","714969","0.0-10.0-2.113","https://mcdermottlab.mit.edu/mturk_stimuli/bjmedina/nhs-region-n_80/sequences/isi_16/len120/seq063_len120_s70_isi-1p0_0p0_16p0.json","10.95","true","tx5twdeae8g","","3008","https://mcdermottlab.mit.edu/mturk_stimuli/bjmedina/nhs-region-n_80/mem_stim_54.wav","2","main","","","true","mem_stim_54.wav","false","16","","0","miss"
"","","","","","html-keyboard-response","262","715034","0.0-10.0-1.114","https://mcdermottlab.mit.edu/mturk_stimuli/bjmedina/nhs-region-n_80/sequences/isi_16/len120/seq063_len120_s70_isi-1p0_0p0_16p0.json","10.95","true","tx5twdeae8g","","null","<span style=""font-size: 40px"">+</span>","null","","","","","","","","","",""
"","","","","","audio-button-response","263","719421","0.0-10.0-2.114","https://mcdermottlab.mit.edu/mturk_stimuli/bjmedina/nhs-region-n_80/sequences/isi_16/len120/seq063_len120_s70_isi-1p0_0p0_16p0.json","10.95","true","tx5twdeae8g","","3349","https://mcdermottlab.mit.edu/mturk_stimuli/bjmedina/nhs-region-n_80/mem_stim_43.wav","3","main","","","false","mem_stim_43.wav","false","-1","","1","correct_rejection"
"","","","","","html-keyboard-response","264","719483","0.0-10.0-1.115","https://mcdermottlab.mit.edu/mturk_stimuli/bjmedina/nhs-region-n_80/sequences/isi_16/len120/seq063_len120_s70_isi-1p0_0p0_16p0.json","10.95","true","tx5twdeae8g","","null","<span style=""font-size: 40px"">+</span>","null","","","","","","","","","",""
"","","","","","audio-button-response","265","722602","0.0-10.0-2.115","https://mcdermottlab.mit.edu/mturk_stimuli/bjmedina/nhs-region-n_80/sequences/isi_16/len120/seq063_len120_s70_isi-1p0_0p0_16p0.json","10.95","true","tx5twdeae8g","","2693","https://mcdermottlab.mit.edu/mturk_stimuli/bjmedina/nhs-region-n_80/mem_stim_57.wav","2","main","","","false","mem_stim_57.wav","false","-1","","1","correct_rejection"
"","","","","","html-keyboard-response","266","722665","0.0-10.0-1.116","https://mcdermottlab.mit.edu/mturk_stimuli/bjmedina/nhs-region-n_80/sequences/isi_16/len120/seq063_len120_s70_isi-1p0_0p0_16p0.json","10.95","true","tx5twdeae8g","","null","<span style=""font-size: 40px"">+</span>","null","","","","","","","","","",""
"","","","","","audio-button-response","267","727420","0.0-10.0-2.116","https://mcdermottlab.mit.edu/mturk_stimuli/bjmedina/nhs-region-n_80/sequences/isi_16/len120/seq063_len120_s70_isi-1p0_0p0_16p0.json","10.95","true","tx5twdeae8g","","4299","https://mcdermottlab.mit.edu/mturk_stimuli/bjmedina/nhs-region-n_80/mem_stim_52.wav","3","main","","","false","mem_stim_52.wav","false","-1","","1","correct_rejection"
"","","","","","html-keyboard-response","268","727485","0.0-10.0-1.117","https://mcdermottlab.mit.edu/mturk_stimuli/bjmedina/nhs-region-n_80/sequences/isi_16/len120/seq063_len120_s70_isi-1p0_0p0_16p0.json","10.95","true","tx5twdeae8g","","null","<span style=""font-size: 40px"">+</span>","null","","","","","","","","","",""
"","","","","","audio-button-response","269","730586","0.0-10.0-2.117","https://mcdermottlab.mit.edu/mturk_stimuli/bjmedina/nhs-region-n_80/sequences/isi_16/len120/seq063_len120_s70_isi-1p0_0p0_16p0.json","10.95","true","tx5twdeae8g","","3099","https://mcdermottlab.mit.edu/mturk_stimuli/bjmedina/nhs-region-n_80/mem_stim_4.wav","1","main","","","true","mem_stim_4.wav","false","16","","1","hit"
"","","","","","html-keyboard-response","270","730648","0.0-10.0-1.118","https://mcdermottlab.mit.edu/mturk_stimuli/bjmedina/nhs-region-n_80/sequences/isi_16/len120/seq063_len120_s70_isi-1p0_0p0_16p0.json","10.95","true","tx5twdeae8g","","null","<span style=""font-size: 40px"">+</span>","null","","","","","","","","","",""
"","","","","","audio-button-response","271","734551","0.0-10.0-2.118","https://mcdermottlab.mit.edu/mturk_stimuli/bjmedina/nhs-region-n_80/sequences/isi_16/len120/seq063_len120_s70_isi-1p0_0p0_16p0.json","10.95","true","tx5twdeae8g","","3275","https://mcdermottlab.mit.edu/mturk_stimuli/bjmedina/nhs-region-n_80/mem_stim_51.wav","0","main","","","false","mem_stim_51.wav","false","-1","","1","correct_rejection"
"","","","","","html-keyboard-response","272","734613","0.0-10.0-1.119","https://mcdermottlab.mit.edu/mturk_stimuli/bjmedina/nhs-region-n_80/sequences/isi_16/len120/seq063_len120_s70_isi-1p0_0p0_16p0.json","10.95","true","tx5twdeae8g","","null","<span style=""font-size: 40px"">+</span>","null","","","","","","","","","",""
