"success","timeout","failed_images","failed_audio","failed_video","trial_type","trial_index","time_elapsed","internal_node_id","sequence_file","pay","passed_hc","completion_code","view_history","rt","stimulus","response","stim_type","hc_answer","correct_hc","repeat","yt_id","catch","isi","type","is_correct","response_type"
"true","false","[]","[]","[]","preload","0","87","0.0-0.0","https://mcdermottlab.mit.edu/mturk_stimuli/bjmedina/nhs-region-n_80/sequences/isi_16/len120/seq015_len120_s70_isi-1p0_0p0_16p0.json","11.19","true","f0rnvu7h07x","","","","","","","","","","","","","",""
"","","","","","instructions","1","3188","0.0-1.0","https://mcdermottlab.mit.edu/mturk_stimuli/bjmedina/nhs-region-n_80/sequences/isi_16/len120/seq015_len120_s70_isi-1p0_0p0_16p0.json","11.19","true","f0rnvu7h07x","[{""page_index"":0,""viewing_time"":3100}]","3101","","","","","","","","","","","",""
"","","","","","instructions","2","19554","0.0-2.0","https://mcdermottlab.mit.edu/mturk_stimuli/bjmedina/nhs-region-n_80/sequences/isi_16/len120/seq015_len120_s70_isi-1p0_0p0_16p0.json","11.19","true","f0rnvu7h07x","[{""page_index"":0,""viewing_time"":16365}]","16365","","","","","","","","","","","",""
"","","","","","audio-button-response","3","56321","0.0-3.0-0.0","https://mcdermottlab.mit.edu/mturk_stimuli/bjmedina/nhs-region-n_80/sequences/isi_16/len120/seq015_len120_s70_isi-1p0_0p0_16p0.json","11.19","true","f0rnvu7h07x","","36651","https://mcdermottlab.mit.edu/bjmedina/experiments/mem_exp_v01/assets/noise_calib_stim.wav","0","","","","","","","","","",""
"","","","","","audio-button-response","4","60203","0.0-3.1-0.1","https://mcdermottlab.mit.edu/mturk_stimuli/bjmedina/nhs-region-n_80/sequences/isi_16/len120/seq015_len120_s70_isi-1p0_0p0_16p0.json","11.19","true","f0rnvu7h07x","","3840","https://mcdermottlab.mit.edu/bjmedina/experiments/mem_exp_v01/assets/noise_calib_stim.wav","1","","","","","","","","","",""
"","","","","","instructions","5","82354","0.0-4.0","https://mcdermottlab.mit.edu/mturk_stimuli/bjmedina/nhs-region-n_80/sequences/isi_16/len120/seq015_len120_s70_isi-1p0_0p0_16p0.json","11.19","true","f0rnvu7h07x","[{""page_index"":0,""viewing_time"":22150}]","22150","","","","","","","","","","","",""
"","","","","","audio-button-response","6","88337","0.0-5.0-0.0","https://mcdermottlab.mit.edu/mturk_stimuli/bjmedina/nhs-region-n_80/sequences/isi_16/len120/seq015_len120_s70_isi-1p0_0p0_16p0.json","11.19","true","f0rnvu7h07x","","5536","https://mcdermottlab.mit.edu/bjmedina/experiments/mem_exp_v01/assets/antiphase_HC_OSI.wav","1","hc","2","1","","","","","","",""
"","","","","","audio-button-response","7","93953","0.0-5.0-0.1","https://mcdermottlab.mit.edu/mturk_stimuli/bjmedina/nhs-region-n_80/sequences/isi_16/len120/seq015_len120_s70_isi-1p0_0p0_16p0.json","11.19","true","f0rnvu7h07x","","4651","https://mcdermottlab.mit.edu/bjmedina/experiments/mem_exp_v01/assets/antiphase_HC_ISO.wav","0","hc","2","0","","","","","","",""
"","","","","","audio-button-response","8","98754","0.0-5.0-0.2","https://mcdermottlab.mit.edu/mturk_stimuli/bjmedina/nhs-region-n_80/sequences/isi_16/len120/seq015_len120_s70_isi-1p0_0p0_16p0.json","11.19","true","f0rnvu7h07x","","4320","https://mcdermottlab.mit.edu/bjmedina/experiments/mem_exp_v01/assets/antiphase_HC_SOI.wav","0","hc","1","1","","","","","","",""
"","","","","","audio-button-response","9","103527","0.0-5.0-0.3","https://mcdermottlab.mit.edu/mturk_stimuli/bjmedina/nhs-region-n_80/sequences/isi_16/len120/seq015_len120_s70_isi-1p0_0p0_16p0.json","11.19","true","f0rnvu7h07x","","4469","https://mcdermottlab.mit.edu/bjmedina/experiments/mem_exp_v01/assets/antiphase_HC_OIS.wav","2","hc","3","1","","","","","","",""
"","","","","","audio-button-response","10","108270","0.0-5.0-0.4","https://mcdermottlab.mit.edu/mturk_stimuli/bjmedina/nhs-region-n_80/sequences/isi_16/len120/seq015_len120_s70_isi-1p0_0p0_16p0.json","11.19","true","f0rnvu7h07x","","4432","https://mcdermottlab.mit.edu/bjmedina/experiments/mem_exp_v01/assets/antiphase_HC_IOS.wav","2","hc","3","1","","","","","","",""
"","","","","","audio-button-response","11","113598","0.0-5.0-0.5","https://mcdermottlab.mit.edu/mturk_stimuli/bjmedina/nhs-region-n_80/sequences/isi_16/len120/seq015_len120_s70_isi-1p0_0p0_16p0.json","11.19","true","f0rnvu7h07x","","5019","https://mcdermottlab.mit.edu/bjmedina/experiments/mem_exp_v01/assets/antiphase_HC_SIO.wav","0","hc","1","1","","","","","","",""
"","","","","","html-keyboard-response","12","116534","0.0-6.0","https://mcdermottlab.mit.edu/mturk_stimuli/bjmedina/nhs-region-n_80/sequences/isi_16/len120/seq015_len120_s70_isi-1p0_0p0_16p0.json","11.19","true","f0rnvu7h07x","","2936","<h1>You have finished the LOUDNESS task!</h1> <p>Press space to continue</p>"," ","","","","","","","","","",""
"","","","","","instructions","13","216085","0.0-7.0","https://mcdermottlab.mit.edu/mturk_stimuli/bjmedina/nhs-region-n_80/sequences/isi_16/len120/seq015_len120_s70_isi-1p0_0p0_16p0.json","11.19","true","f0rnvu7h07x","[{""page_index"":0,""viewing_time"":8144},{""page_index"":1,""viewing_time"":29900},{""page_index"":2,""viewing_time"":54219},{""page_index"":3,""viewing_time"":7301}]","99564","","","","","","","","","","","",""
"","","","","","html-keyboard-response","14","216137","0.0-8.0-0.0","https://mcdermottlab.mit.edu/mturk_stimuli/bjmedina/nhs-region-n_80/sequences/isi_16/len120/seq015_len120_s70_isi-1p0_0p0_16p0.json","11.19","true","f0rnvu7h07x","","null","<span style=""font-size: 40px"">+</span>","null","fixation","","","","","","","","",""
"","","","","","audio-button-response","15","223484","0.0-8.0-1.0","https://mcdermottlab.mit.edu/mturk_stimuli/bjmedina/nhs-region-n_80/sequences/isi_16/len120/seq015_len120_s70_isi-1p0_0p0_16p0.json","11.19","true","f0rnvu7h07x","","6800","https://mcdermottlab.mit.edu/mturk_stimuli/bjmedina/mem_exp_v05/mem_stim_1023_f32.wav","0","demo","","","0","","","","","",""
"","","","","","html-keyboard-response","16","223537","0.0-8.0-0.1","https://mcdermottlab.mit.edu/mturk_stimuli/bjmedina/nhs-region-n_80/sequences/isi_16/len120/seq015_len120_s70_isi-1p0_0p0_16p0.json","11.19","true","f0rnvu7h07x","","null","<span style=""font-size: 40px"">+</span>","null","fixation","","","","","","","","",""
"","","","","","audio-button-response","17","235968","0.0-8.0-1.1","https://mcdermottlab.mit.edu/mturk_stimuli/bjmedina/nhs-region-n_80/sequences/isi_16/len120/seq015_len120_s70_isi-1p0_0p0_16p0.json","11.19","true","f0rnvu7h07x","","11920","https://mcdermottlab.mit.edu/mturk_stimuli/bjmedina/mem_exp_v05/mem_stim_1022_f32.wav","1","demo","","","0","","","","","",""
"","","","","","html-keyboard-response","18","236020","0.0-8.0-0.2","https://mcdermottlab.mit.edu/mturk_stimuli/bjmedina/nhs-region-n_80/sequences/isi_16/len120/seq015_len120_s70_isi-1p0_0p0_16p0.json","11.19","true","f0rnvu7h07x","","null","<span style=""font-size: 40px"">+</span>","null","fixation","","","","","","","","",""
"","","","","","audio-button-response","19","240335","0.0-8.0-1.2","https://mcdermottlab.mit.edu/mturk_stimuli/bjmedina/nhs-region-n_80/sequences/isi_16/len120/seq015_len120_s70_isi-1p0_0p0_16p0.json","11.19","true","f0rnvu7h07x","","4309","https://mcdermottlab.mit.edu/mturk_stimuli/bjmedina/mem_exp_v05/mem_stim_1022_f32.wav","1","demo","","","1","","","","","",""
"","","","","","html-keyboard-response","20","240387","0.0-8.0-0.3","https://mcdermottlab.mit.edu/mturk_stimuli/bjmedina/nhs-region-n_80/sequences/isi_16/len120/seq015_len120_s70_isi-1p0_0p0_16p0.json","11.19","true","f0rnvu7h07x","","null","<span style=""font-size: 40px"">+</span>","null","fixation","","","","","","","","",""
"","","","","","audio-button-response","21","249967","0.0-8.0-1.3","https://mcdermottlab.mit.edu/mturk_stimuli/bjmedina/nhs-region-n_80/sequences/isi_16/len120/seq015_len120_s70_isi-1p0_0p0_16p0.json","11.19","true","f0rnvu7h07x","","7877","https://mcdermottlab.mit.edu/mturk_stimuli/bjmedina/mem_exp_v05/mem_stim_1021_f32.wav","1","demo","","","0","","","","","",""
"","","","","","html-keyboard-response","22","250020","0.0-8.0-0.4","https://mcdermottlab.mit.edu/mturk_stimuli/bjmedina/nhs-region-n_80/sequences/isi_16/len120/seq015_len120_s70_isi-1p0_0p0_16p0.json","11.19","true","f0rnvu7h07x","","null","<span style=""font-size: 40px"">+</span>","null","fixation","","","","","","","","",""
"","","","","","audio-button-response","23","254235","0.0-8.0-1.4","https://mcdermottlab.mit.edu/mturk_stimuli/bjmedina/nhs-region-n_80/sequences/isi_16/len120/seq015_len120_s70_isi-1p0_0p0_16p0.json","11.19","true","f0rnvu7h07x","","4213","https://mcdermottlab.mit.edu/mturk_stimuli/bjmedina/mem_exp_v05/mem_stim_1023_f32.wav","2","demo","","","1","","","","","",""
"","","","","","html-keyboard-response","24","254286","0.0-8.0-0.5","https://mcdermottlab.mit.edu/mturk_stimuli/bjmedina/nhs-region-n_80/sequences/isi_16/len120/seq015_len120_s70_isi-1p0_0p0_16p0.json","11.19","true","f0rnvu7h07x","","null","<span style=""font-size: 40px"">+</span>","null","fixation","","","","","","","","",""
"","","","","","audio-button-response","25","260301","0.0-8.0-1.5","https://mcdermottlab.mit.edu/mturk_stimuli/bjmedina/nhs-region-n_80/sequences/isi_16/len120/seq015_len120_s70_isi-1p0_0p0_16p0.json","11.19","true","f0rnvu7h07x","","5595","https://mcdermottlab.mit.edu/mturk_stimuli/bjmedina/mem_exp_v05/mem_stim_1020_f32.wav","0","demo","","","0","","","","","",""
"","","","","","html-keyboard-response","26","260353","0.0-8.0-0.6","https://mcdermottlab.mit.edu/mturk_stimuli/bjmedina/nhs-region-n_80/sequences/isi_16/len120/seq015_len120_s70_isi-1p0_0p0_16p0.json","11.19","true","f0rnvu7h07x","","null","<span style=""font-size: 40px"">+</span>","null","fixation","","","","","","","","",""
"","","","","","audio-button-response","27","264818","0.0-8.0-1.6","https://mcdermottlab.mit.edu/mturk_stimuli/bjmedina/nhs-region-n_80/sequences/isi_16/len120/seq015_len120_s70_isi-1p0_0p0_16p0.json","11.19","true","f0rnvu7h07x","","3979","https://mcdermottlab.mit.edu/mturk_stimuli/bjmedina/mem_exp_v05/mem_stim_1019_f32.wav","1","demo","","","0","","","","","",""
"","","","","","html-keyboard-response","28","264871","0.0-8.0-0.7","https://mcdermottlab.mit.edu/mturk_stimuli/bjmedina/nhs-region-n_80/sequences/isi_16/len120/seq015_len120_s70_isi-1p0_0p0_16p0.json","11.19","true","f0rnvu7h07x","","null","<span style=""font-size: 40px"">+</span>","null","fixation","","","","","","","","",""
"","","","","","audio-button-response","29","270251","0.0-8.0-1.7","https://mcdermottlab.mit.edu/mturk_stimuli/bjmedina/nhs-region-n_80/sequences/isi_16/len120/seq015_len120_s70_isi-1p0_0p0_16p0.json","11.19","true","f0rnvu7h07x","","5381","https://mcdermottlab.mit.edu/mturk_stimuli/bjmedina/mem_exp_v05/mem_stim_1021_f32.wav","0","demo","","","1","","","","","",""
"","","","","","html-keyboard-response","30","274290","0.0-9.0","https://mcdermottlab.mit.edu/mturk_stimuli/bjmedina/nhs-region-n_80/sequences/isi_16/len120/seq015_len120_s70_isi-1p0_0p0_16p0.json","11.19","true","f0rnvu7h07x","","4038","<p>You are now ready to start the experiment. Press SPACE when you are ready to start.</p>"," ","","","","","","","","","",""
"","","","","","html-keyboard-response","31","274342","0.0-10.0-1.0","https://mcdermottlab.mit.edu/mturk_stimuli/bjmedina/nhs-region-n_80/sequences/isi_16/len120/seq015_len120_s70_isi-1p0_0p0_16p0.json","11.19","true","f0rnvu7h07x","","null","<span style=""font-size: 40px"">+</span>","null","","","","","","","","","",""
"","","","","","audio-button-response","32","280768","0.0-10.0-2.0","https://mcdermottlab.mit.edu/mturk_stimuli/bjmedina/nhs-region-n_80/sequences/isi_16/len120/seq015_len120_s70_isi-1p0_0p0_16p0.json","11.19","true","f0rnvu7h07x","","6064","https://mcdermottlab.mit.edu/mturk_stimuli/bjmedina/nhs-region-n_80/mem_stim_33.wav","0","main","","","false","mem_stim_33.wav","false","-1","","1","correct_rejection"
"","","","","","html-keyboard-response","33","280827","0.0-10.0-1.1","https://mcdermottlab.mit.edu/mturk_stimuli/bjmedina/nhs-region-n_80/sequences/isi_16/len120/seq015_len120_s70_isi-1p0_0p0_16p0.json","11.19","true","f0rnvu7h07x","","null","<span style=""font-size: 40px"">+</span>","null","","","","","","","","","",""
"","","","","","audio-button-response","34","286268","0.0-10.0-2.1","https://mcdermottlab.mit.edu/mturk_stimuli/bjmedina/nhs-region-n_80/sequences/isi_16/len120/seq015_len120_s70_isi-1p0_0p0_16p0.json","11.19","true","f0rnvu7h07x","","5077","https://mcdermottlab.mit.edu/mturk_stimuli/bjmedina/nhs-region-n_80/mem_stim_1.wav","0","main","","","false","mem_stim_1.wav","false","-1","","1","correct_rejection"
"","","","","","html-keyboard-response","35","286323","0.0-10.0-1.2","https://mcdermottlab.mit.edu/mturk_stimuli/bjmedina/nhs-region-n_80/sequences/isi_16/len120/seq015_len120_s70_isi-1p0_0p0_16p0.json","11.19","true","f0rnvu7h07x","","null","<span style=""font-size: 40px"">+</span>","null","","","","","","","","","",""
"","","","","","audio-button-response","36","290133","0.0-10.0-2.2","https://mcdermottlab.mit.edu/mturk_stimuli/bjmedina/nhs-region-n_80/sequences/isi_16/len120/seq015_len120_s70_isi-1p0_0p0_16p0.json","11.19","true","f0rnvu7h07x","","3456","https://mcdermottlab.mit.edu/mturk_stimuli/bjmedina/nhs-region-n_80/mem_stim_55.wav","1","main","","","false","mem_stim_55.wav","false","-1","","0","false_alarm"
"","","","","","html-keyboard-response","37","290188","0.0-10.0-1.3","https://mcdermottlab.mit.edu/mturk_stimuli/bjmedina/nhs-region-n_80/sequences/isi_16/len120/seq015_len120_s70_isi-1p0_0p0_16p0.json","11.19","true","f0rnvu7h07x","","null","<span style=""font-size: 40px"">+</span>","null","","","","","","","","","",""
"","","","","","audio-button-response","38","294751","0.0-10.0-2.3","https://mcdermottlab.mit.edu/mturk_stimuli/bjmedina/nhs-region-n_80/sequences/isi_16/len120/seq015_len120_s70_isi-1p0_0p0_16p0.json","11.19","true","f0rnvu7h07x","","4325","https://mcdermottlab.mit.edu/mturk_stimuli/bjmedina/nhs-region-n_80/mem_stim_50.wav","1","main","","","false","mem_stim_50.wav","false","-1","","0","false_alarm"
"","","","","","html-keyboard-response","39","294807","0.0-10.0-1.4","https://mcdermottlab.mit.edu/mturk_stimuli/bjmedina/nhs-region-n_80/sequences/isi_16/len120/seq015_len120_s70_isi-1p0_0p0_16p0.json","11.19","true","f0rnvu7h07x","","null","<span style=""font-size: 40px"">+</span>","null","","","","","","","","","",""
"","","","","","audio-button-response","40","298451","0.0-10.0-2.4","https://mcdermottlab.mit.edu/mturk_stimuli/bjmedina/nhs-region-n_80/sequences/isi_16/len120/seq015_len120_s70_isi-1p0_0p0_16p0.json","11.19","true","f0rnvu7h07x","","3419","https://mcdermottlab.mit.edu/mturk_stimuli/bjmedina/nhs-region-n_80/mem_stim_19.wav","2","main","","","false","mem_stim_19.wav","false","-1","","1","correct_rejection"
"","","","","","html-keyboard-response","41","298507","0.0-10.0-1.5","https://mcdermottlab.mit.edu/mturk_stimuli/bjmedina/nhs-region-n_80/sequences/isi_16/len120/seq015_len120_s70_isi-1p0_0p0_16p0.json","11.19","true","f0rnvu7h07x","","null","<span style=""font-size: 40px"">+</span>","null","","","","","","","","","",""
"","","","","","audio-button-response","42","302351","0.0-10.0-2.5","https://mcdermottlab.mit.edu/mturk_stimuli/bjmedina/nhs-region-n_80/sequences/isi_16/len120/seq015_len120_s70_isi-1p0_0p0_16p0.json","11.19","true","f0rnvu7h07x","","3605","https://mcdermottlab.mit.edu/mturk_stimuli/bjmedina/nhs-region-n_80/mem_stim_34.wav","2","main","","","false","mem_stim_34.wav","false","-1","","1","correct_rejection"
"","","","","","html-keyboard-response","43","302406","0.0-10.0-1.6","https://mcdermottlab.mit.edu/mturk_stimuli/bjmedina/nhs-region-n_80/sequences/isi_16/len120/seq015_len120_s70_isi-1p0_0p0_16p0.json","11.19","true","f0rnvu7h07x","","null","<span style=""font-size: 40px"">+</span>","null","","","","","","","","","",""
"","","","","","audio-button-response","44","306151","0.0-10.0-2.6","https://mcdermottlab.mit.edu/mturk_stimuli/bjmedina/nhs-region-n_80/sequences/isi_16/len120/seq015_len120_s70_isi-1p0_0p0_16p0.json","11.19","true","f0rnvu7h07x","","3509","https://mcdermottlab.mit.edu/mturk_stimuli/bjmedina/nhs-region-n_80/mem_stim_56.wav","0","main","","","false","mem_stim_56.wav","false","-1","","1","correct_rejection"
"","","","","","html-keyboard-response","45","306207","0.0-10.0-1.7","https://mcdermottlab.mit.edu/mturk_stimuli/bjmedina/nhs-region-n_80/sequences/isi_16/len120/seq015_len120_s70_isi-1p0_0p0_16p0.json","11.19","true","f0rnvu7h07x","","null","<span style=""font-size: 40px"">+</span>","null","","","","","","","","","",""
"","","","","","audio-button-response","46","310501","0.0-10.0-2.7","https://mcdermottlab.mit.edu/mturk_stimuli/bjmedina/nhs-region-n_80/sequences/isi_16/len120/seq015_len120_s70_isi-1p0_0p0_16p0.json","11.19","true","f0rnvu7h07x","","4064","https://mcdermottlab.mit.edu/mturk_stimuli/bjmedina/nhs-region-n_80/mem_stim_42.wav","1","main","","","false","mem_stim_42.wav","false","-1","","0","false_alarm"
"","","","","","html-keyboard-response","47","310555","0.0-10.0-1.8","https://mcdermottlab.mit.edu/mturk_stimuli/bjmedina/nhs-region-n_80/sequences/isi_16/len120/seq015_len120_s70_isi-1p0_0p0_16p0.json","11.19","true","f0rnvu7h07x","","null","<span style=""font-size: 40px"">+</span>","null","","","","","","","","","",""
"","","","","","audio-button-response","48","314302","0.0-10.0-2.8","https://mcdermottlab.mit.edu/mturk_stimuli/bjmedina/nhs-region-n_80/sequences/isi_16/len120/seq015_len120_s70_isi-1p0_0p0_16p0.json","11.19","true","f0rnvu7h07x","","3515","https://mcdermottlab.mit.edu/mturk_stimuli/bjmedina/nhs-region-n_80/mem_stim_45.wav","0","main","","","false","mem_stim_45.wav","false","-1","","1","correct_rejection"
"","","","","","html-keyboard-response","49","314357","0.0-10.0-1.9","https://mcdermottlab.mit.edu/mturk_stimuli/bjmedina/nhs-region-n_80/sequences/isi_16/len120/seq015_len120_s70_isi-1p0_0p0_16p0.json","11.19","true","f0rnvu7h07x","","null","<span style=""font-size: 40px"">+</span>","null","","","","","","","","","",""
"","","","","","audio-button-response","50","318001","0.0-10.0-2.9","https://mcdermottlab.mit.edu/mturk_stimuli/bjmedina/nhs-region-n_80/sequences/isi_16/len120/seq015_len120_s70_isi-1p0_0p0_16p0.json","11.19","true","f0rnvu7h07x","","3397","https://mcdermottlab.mit.edu/mturk_stimuli/bjmedina/nhs-region-n_80/mem_stim_52.wav","0","main","","","false","mem_stim_52.wav","false","-1","","1","correct_rejection"
"","","","","","html-keyboard-response","51","318058","0.0-10.0-1.10","https://mcdermottlab.mit.edu/mturk_stimuli/bjmedina/nhs-region-n_80/sequences/isi_16/len120/seq015_len120_s70_isi-1p0_0p0_16p0.json","11.19","true","f0rnvu7h07x","","null","<span style=""font-size: 40px"">+</span>","null","","","","","","","","","",""
"","","","","","audio-button-response","52","325234","0.0-10.0-2.10","https://mcdermottlab.mit.edu/mturk_stimuli/bjmedina/nhs-region-n_80/sequences/isi_16/len120/seq015_len120_s70_isi-1p0_0p0_16p0.json","11.19","true","f0rnvu7h07x","","6949","https://mcdermottlab.mit.edu/mturk_stimuli/bjmedina/nhs-region-n_80/mem_stim_9.wav","0","main","","","false","mem_stim_9.wav","false","-1","","1","correct_rejection"
"","","","","","html-keyboard-response","53","325291","0.0-10.0-1.11","https://mcdermottlab.mit.edu/mturk_stimuli/bjmedina/nhs-region-n_80/sequences/isi_16/len120/seq015_len120_s70_isi-1p0_0p0_16p0.json","11.19","true","f0rnvu7h07x","","null","<span style=""font-size: 40px"">+</span>","null","","","","","","","","","",""
"","","","","","audio-button-response","54","328735","0.0-10.0-2.11","https://mcdermottlab.mit.edu/mturk_stimuli/bjmedina/nhs-region-n_80/sequences/isi_16/len120/seq015_len120_s70_isi-1p0_0p0_16p0.json","11.19","true","f0rnvu7h07x","","3072","https://mcdermottlab.mit.edu/mturk_stimuli/bjmedina/nhs-region-n_80/mem_stim_23.wav","0","main","","","false","mem_stim_23.wav","false","-1","","1","correct_rejection"
"","","","","","html-keyboard-response","55","328790","0.0-10.0-1.12","https://mcdermottlab.mit.edu/mturk_stimuli/bjmedina/nhs-region-n_80/sequences/isi_16/len120/seq015_len120_s70_isi-1p0_0p0_16p0.json","11.19","true","f0rnvu7h07x","","null","<span style=""font-size: 40px"">+</span>","null","","","","","","","","","",""
"","","","","","audio-button-response","56","332434","0.0-10.0-2.12","https://mcdermottlab.mit.edu/mturk_stimuli/bjmedina/nhs-region-n_80/sequences/isi_16/len120/seq015_len120_s70_isi-1p0_0p0_16p0.json","11.19","true","f0rnvu7h07x","","3413","https://mcdermottlab.mit.edu/mturk_stimuli/bjmedina/nhs-region-n_80/mem_stim_4.wav","1","main","","","false","mem_stim_4.wav","false","-1","","0","false_alarm"
"","","","","","html-keyboard-response","57","332489","0.0-10.0-1.13","https://mcdermottlab.mit.edu/mturk_stimuli/bjmedina/nhs-region-n_80/sequences/isi_16/len120/seq015_len120_s70_isi-1p0_0p0_16p0.json","11.19","true","f0rnvu7h07x","","null","<span style=""font-size: 40px"">+</span>","null","","","","","","","","","",""
"","","","","","audio-button-response","58","337567","0.0-10.0-2.13","https://mcdermottlab.mit.edu/mturk_stimuli/bjmedina/nhs-region-n_80/sequences/isi_16/len120/seq015_len120_s70_isi-1p0_0p0_16p0.json","11.19","true","f0rnvu7h07x","","4853","https://mcdermottlab.mit.edu/mturk_stimuli/bjmedina/nhs-region-n_80/mem_stim_30.wav","2","main","","","false","mem_stim_30.wav","false","-1","","1","correct_rejection"
"","","","","","html-keyboard-response","59","337624","0.0-10.0-1.14","https://mcdermottlab.mit.edu/mturk_stimuli/bjmedina/nhs-region-n_80/sequences/isi_16/len120/seq015_len120_s70_isi-1p0_0p0_16p0.json","11.19","true","f0rnvu7h07x","","null","<span style=""font-size: 40px"">+</span>","null","","","","","","","","","",""
"","","","","","audio-button-response","60","340966","0.0-10.0-2.14","https://mcdermottlab.mit.edu/mturk_stimuli/bjmedina/nhs-region-n_80/sequences/isi_16/len120/seq015_len120_s70_isi-1p0_0p0_16p0.json","11.19","true","f0rnvu7h07x","","3035","https://mcdermottlab.mit.edu/mturk_stimuli/bjmedina/nhs-region-n_80/mem_stim_73.wav","2","main","","","false","mem_stim_73.wav","false","-1","","1","correct_rejection"
"","","","","","html-keyboard-response","61","341024","0.0-10.0-1.15","https://mcdermottlab.mit.edu/mturk_stimuli/bjmedina/nhs-region-n_80/sequences/isi_16/len120/seq015_len120_s70_isi-1p0_0p0_16p0.json","11.19","true","f0rnvu7h07x","","null","<span style=""font-size: 40px"">+</span>","null","","","","","","","","","",""
"","","","","","audio-button-response","62","344500","0.0-10.0-2.15","https://mcdermottlab.mit.edu/mturk_stimuli/bjmedina/nhs-region-n_80/sequences/isi_16/len120/seq015_len120_s70_isi-1p0_0p0_16p0.json","11.19","true","f0rnvu7h07x","","3232","https://mcdermottlab.mit.edu/mturk_stimuli/bjmedina/nhs-region-n_80/mem_stim_37.wav","0","main","","","false","mem_stim_37.wav","false","-1","","1","correct_rejection"
"","","","","","html-keyboard-response","63","344556","0.0-10.0-1.16","https://mcdermottlab.mit.edu/mturk_stimuli/bjmedina/nhs-region-n_80/sequences/isi_16/len120/seq015_len120_s70_isi-1p0_0p0_16p0.json","11.19","true","f0rnvu7h07x","","null","<span style=""font-size: 40px"">+</span>","null","","","","","","","","","",""
"","","","","","audio-button-response","64","347800","0.0-10.0-2.16","https://mcdermottlab.mit.edu/mturk_stimuli/bjmedina/nhs-region-n_80/sequences/isi_16/len120/seq015_len120_s70_isi-1p0_0p0_16p0.json","11.19","true","f0rnvu7h07x","","2976","https://mcdermottlab.mit.edu/mturk_stimuli/bjmedina/nhs-region-n_80/mem_stim_67.wav","0","main","","","false","mem_stim_67.wav","false","-1","","1","correct_rejection"
"","","","","","html-keyboard-response","65","347856","0.0-10.0-1.17","https://mcdermottlab.mit.edu/mturk_stimuli/bjmedina/nhs-region-n_80/sequences/isi_16/len120/seq015_len120_s70_isi-1p0_0p0_16p0.json","11.19","true","f0rnvu7h07x","","null","<span style=""font-size: 40px"">+</span>","null","","","","","","","","","",""
"","","","","","audio-button-response","66","351250","0.0-10.0-2.17","https://mcdermottlab.mit.edu/mturk_stimuli/bjmedina/nhs-region-n_80/sequences/isi_16/len120/seq015_len120_s70_isi-1p0_0p0_16p0.json","11.19","true","f0rnvu7h07x","","3392","https://mcdermottlab.mit.edu/mturk_stimuli/bjmedina/nhs-region-n_80/mem_stim_33.wav","0","main","","","true","mem_stim_33.wav","false","16","","0","miss"
"","","","","","html-keyboard-response","67","351307","0.0-10.0-1.18","https://mcdermottlab.mit.edu/mturk_stimuli/bjmedina/nhs-region-n_80/sequences/isi_16/len120/seq015_len120_s70_isi-1p0_0p0_16p0.json","11.19","true","f0rnvu7h07x","","null","<span style=""font-size: 40px"">+</span>","null","","","","","","","","","",""
"","","","","","audio-button-response","68","355251","0.0-10.0-2.18","https://mcdermottlab.mit.edu/mturk_stimuli/bjmedina/nhs-region-n_80/sequences/isi_16/len120/seq015_len120_s70_isi-1p0_0p0_16p0.json","11.19","true","f0rnvu7h07x","","3941","https://mcdermottlab.mit.edu/mturk_stimuli/bjmedina/nhs-region-n_80/mem_stim_1.wav","2","main","","","true","mem_stim_1.wav","false","16","","0","miss"
"","","","","","html-keyboard-response","69","355308","0.0-10.0-1.19","https://mcdermottlab.mit.edu/mturk_stimuli/bjmedina/nhs-region-n_80/sequences/isi_16/len120/seq015_len120_s70_isi-1p0_0p0_16p0.json","11.19","true","f0rnvu7h07x","","null","<span style=""font-size: 40px"">+</span>","null","","","","","","","","","",""
"","","","","","audio-button-response","70","359251","0.0-10.0-2.19","https://mcdermottlab.mit.edu/mturk_stimuli/bjmedina/nhs-region-n_80/sequences/isi_16/len120/seq015_len120_s70_isi-1p0_0p0_16p0.json","11.19","true","f0rnvu7h07x","","3941","https://mcdermottlab.mit.edu/mturk_stimuli/bjmedina/nhs-region-n_80/mem_stim_55.wav","3","main","","","true","mem_stim_55.wav","false","16","","0","miss"
"","","","","","html-keyboard-response","71","359308","0.0-10.0-1.20","https://mcdermottlab.mit.edu/mturk_stimuli/bjmedina/nhs-region-n_80/sequences/isi_16/len120/seq015_len120_s70_isi-1p0_0p0_16p0.json","11.19","true","f0rnvu7h07x","","null","<span style=""font-size: 40px"">+</span>","null","","","","","","","","","",""
"","","","","","audio-button-response","72","363318","0.0-10.0-2.20","https://mcdermottlab.mit.edu/mturk_stimuli/bjmedina/nhs-region-n_80/sequences/isi_16/len120/seq015_len120_s70_isi-1p0_0p0_16p0.json","11.19","true","f0rnvu7h07x","","3776","https://mcdermottlab.mit.edu/mturk_stimuli/bjmedina/nhs-region-n_80/mem_stim_60.wav","0","main","","","false","mem_stim_60.wav","false","-1","","1","correct_rejection"
"","","","","","html-keyboard-response","73","363375","0.0-10.0-1.21","https://mcdermottlab.mit.edu/mturk_stimuli/bjmedina/nhs-region-n_80/sequences/isi_16/len120/seq015_len120_s70_isi-1p0_0p0_16p0.json","11.19","true","f0rnvu7h07x","","null","<span style=""font-size: 40px"">+</span>","null","","","","","","","","","",""
"","","","","","audio-button-response","74","371200","0.0-10.0-2.21","https://mcdermottlab.mit.edu/mturk_stimuli/bjmedina/nhs-region-n_80/sequences/isi_16/len120/seq015_len120_s70_isi-1p0_0p0_16p0.json","11.19","true","f0rnvu7h07x","","7579","https://mcdermottlab.mit.edu/mturk_stimuli/bjmedina/nhs-region-n_80/mem_stim_5.wav","0","main","","","false","mem_stim_5.wav","false","-1","","1","correct_rejection"
"","","","","","html-keyboard-response","75","371256","0.0-10.0-1.22","https://mcdermottlab.mit.edu/mturk_stimuli/bjmedina/nhs-region-n_80/sequences/isi_16/len120/seq015_len120_s70_isi-1p0_0p0_16p0.json","11.19","true","f0rnvu7h07x","","null","<span style=""font-size: 40px"">+</span>","null","","","","","","","","","",""
"","","","","","audio-button-response","76","374218","0.0-10.0-2.22","https://mcdermottlab.mit.edu/mturk_stimuli/bjmedina/nhs-region-n_80/sequences/isi_16/len120/seq015_len120_s70_isi-1p0_0p0_16p0.json","11.19","true","f0rnvu7h07x","","2960","https://mcdermottlab.mit.edu/mturk_stimuli/bjmedina/nhs-region-n_80/mem_stim_34.wav","0","main","","","true","mem_stim_34.wav","false","16","","0","miss"
"","","","","","html-keyboard-response","77","374275","0.0-10.0-1.23","https://mcdermottlab.mit.edu/mturk_stimuli/bjmedina/nhs-region-n_80/sequences/isi_16/len120/seq015_len120_s70_isi-1p0_0p0_16p0.json","11.19","true","f0rnvu7h07x","","null","<span style=""font-size: 40px"">+</span>","null","","","","","","","","","",""
"","","","","","audio-button-response","78","377418","0.0-10.0-2.23","https://mcdermottlab.mit.edu/mturk_stimuli/bjmedina/nhs-region-n_80/sequences/isi_16/len120/seq015_len120_s70_isi-1p0_0p0_16p0.json","11.19","true","f0rnvu7h07x","","2827","https://mcdermottlab.mit.edu/mturk_stimuli/bjmedina/nhs-region-n_80/mem_stim_71.wav","0","main","","","false","mem_stim_71.wav","false","-1","","1","correct_rejection"
"","","","","","html-keyboard-response","79","377474","0.0-10.0-1.24","https://mcdermottlab.mit.edu/mturk_stimuli/bjmedina/nhs-region-n_80/sequences/isi_16/len120/seq015_len120_s70_isi-1p0_0p0_16p0.json","11.19","true","f0rnvu7h07x","","null","<span style=""font-size: 40px"">+</span>","null","","","","","","","","","",""
"","","","","","audio-button-response","80","380685","0.0-10.0-2.24","https://mcdermottlab.mit.edu/mturk_stimuli/bjmedina/nhs-region-n_80/sequences/isi_16/len120/seq015_len120_s70_isi-1p0_0p0_16p0.json","11.19","true","f0rnvu7h07x","","3211","https://mcdermottlab.mit.edu/mturk_stimuli/bjmedina/nhs-region-n_80/mem_stim_42.wav","2","main","","","true","mem_stim_42.wav","false","16","","0","miss"
"","","","","","html-keyboard-response","81","380742","0.0-10.0-1.25","https://mcdermottlab.mit.edu/mturk_stimuli/bjmedina/nhs-region-n_80/sequences/isi_16/len120/seq015_len120_s70_isi-1p0_0p0_16p0.json","11.19","true","f0rnvu7h07x","","null","<span style=""font-size: 40px"">+</span>","null","","","","","","","","","",""
"","","","","","audio-button-response","82","383817","0.0-10.0-2.25","https://mcdermottlab.mit.edu/mturk_stimuli/bjmedina/nhs-region-n_80/sequences/isi_16/len120/seq015_len120_s70_isi-1p0_0p0_16p0.json","11.19","true","f0rnvu7h07x","","3072","https://mcdermottlab.mit.edu/mturk_stimuli/bjmedina/nhs-region-n_80/mem_stim_45.wav","0","main","","","true","mem_stim_45.wav","false","16","","0","miss"
"","","","","","html-keyboard-response","83","383874","0.0-10.0-1.26","https://mcdermottlab.mit.edu/mturk_stimuli/bjmedina/nhs-region-n_80/sequences/isi_16/len120/seq015_len120_s70_isi-1p0_0p0_16p0.json","11.19","true","f0rnvu7h07x","","null","<span style=""font-size: 40px"">+</span>","null","","","","","","","","","",""
"","","","","","audio-button-response","84","387284","0.0-10.0-2.26","https://mcdermottlab.mit.edu/mturk_stimuli/bjmedina/nhs-region-n_80/sequences/isi_16/len120/seq015_len120_s70_isi-1p0_0p0_16p0.json","11.19","true","f0rnvu7h07x","","3168","https://mcdermottlab.mit.edu/mturk_stimuli/bjmedina/nhs-region-n_80/mem_stim_26.wav","0","main","","","false","mem_stim_26.wav","false","-1","","1","correct_rejection"
"","","","","","html-keyboard-response","85","387341","0.0-10.0-1.27","https://mcdermottlab.mit.edu/mturk_stimuli/bjmedina/nhs-region-n_80/sequences/isi_16/len120/seq015_len120_s70_isi-1p0_0p0_16p0.json","11.19","true","f0rnvu7h07x","","null","<span style=""font-size: 40px"">+</span>","null","","","","","","","","","",""
"","","","","","audio-button-response","86","396384","0.0-10.0-2.27","https://mcdermottlab.mit.edu/mturk_stimuli/bjmedina/nhs-region-n_80/sequences/isi_16/len120/seq015_len120_s70_isi-1p0_0p0_16p0.json","11.19","true","f0rnvu7h07x","","9040","https://mcdermottlab.mit.edu/mturk_stimuli/bjmedina/nhs-region-n_80/mem_stim_26.wav","1","main","","","true","mem_stim_26.wav","true","0","","1","hit"
"","","","","","html-keyboard-response","87","396442","0.0-10.0-1.28","https://mcdermottlab.mit.edu/mturk_stimuli/bjmedina/nhs-region-n_80/sequences/isi_16/len120/seq015_len120_s70_isi-1p0_0p0_16p0.json","11.19","true","f0rnvu7h07x","","null","<span style=""font-size: 40px"">+</span>","null","","","","","","","","","",""
"","","","","","audio-button-response","88","400084","0.0-10.0-2.28","https://mcdermottlab.mit.edu/mturk_stimuli/bjmedina/nhs-region-n_80/sequences/isi_16/len120/seq015_len120_s70_isi-1p0_0p0_16p0.json","11.19","true","f0rnvu7h07x","","3243","https://mcdermottlab.mit.edu/mturk_stimuli/bjmedina/nhs-region-n_80/mem_stim_47.wav","0","main","","","false","mem_stim_47.wav","false","-1","","1","correct_rejection"
"","","","","","html-keyboard-response","89","400140","0.0-10.0-1.29","https://mcdermottlab.mit.edu/mturk_stimuli/bjmedina/nhs-region-n_80/sequences/isi_16/len120/seq015_len120_s70_isi-1p0_0p0_16p0.json","11.19","true","f0rnvu7h07x","","null","<span style=""font-size: 40px"">+</span>","null","","","","","","","","","",""
"","","","","","audio-button-response","90","403568","0.0-10.0-2.29","https://mcdermottlab.mit.edu/mturk_stimuli/bjmedina/nhs-region-n_80/sequences/isi_16/len120/seq015_len120_s70_isi-1p0_0p0_16p0.json","11.19","true","f0rnvu7h07x","","3429","https://mcdermottlab.mit.edu/mturk_stimuli/bjmedina/nhs-region-n_80/mem_stim_4.wav","3","main","","","true","mem_stim_4.wav","false","16","","0","miss"
"","","","","","html-keyboard-response","91","403624","0.0-10.0-1.30","https://mcdermottlab.mit.edu/mturk_stimuli/bjmedina/nhs-region-n_80/sequences/isi_16/len120/seq015_len120_s70_isi-1p0_0p0_16p0.json","11.19","true","f0rnvu7h07x","","null","<span style=""font-size: 40px"">+</span>","null","","","","","","","","","",""
"","","","","","audio-button-response","92","407001","0.0-10.0-2.30","https://mcdermottlab.mit.edu/mturk_stimuli/bjmedina/nhs-region-n_80/sequences/isi_16/len120/seq015_len120_s70_isi-1p0_0p0_16p0.json","11.19","true","f0rnvu7h07x","","3136","https://mcdermottlab.mit.edu/mturk_stimuli/bjmedina/nhs-region-n_80/mem_stim_28.wav","0","main","","","false","mem_stim_28.wav","false","-1","","1","correct_rejection"
"","","","","","html-keyboard-response","93","407059","0.0-10.0-1.31","https://mcdermottlab.mit.edu/mturk_stimuli/bjmedina/nhs-region-n_80/sequences/isi_16/len120/seq015_len120_s70_isi-1p0_0p0_16p0.json","11.19","true","f0rnvu7h07x","","null","<span style=""font-size: 40px"">+</span>","null","","","","","","","","","",""
"","","","","","audio-button-response","94","410535","0.0-10.0-2.31","https://mcdermottlab.mit.edu/mturk_stimuli/bjmedina/nhs-region-n_80/sequences/isi_16/len120/seq015_len120_s70_isi-1p0_0p0_16p0.json","11.19","true","f0rnvu7h07x","","3237","https://mcdermottlab.mit.edu/mturk_stimuli/bjmedina/nhs-region-n_80/mem_stim_8.wav","0","main","","","false","mem_stim_8.wav","false","-1","","1","correct_rejection"
"","","","","","html-keyboard-response","95","410591","0.0-10.0-1.32","https://mcdermottlab.mit.edu/mturk_stimuli/bjmedina/nhs-region-n_80/sequences/isi_16/len120/seq015_len120_s70_isi-1p0_0p0_16p0.json","11.19","true","f0rnvu7h07x","","null","<span style=""font-size: 40px"">+</span>","null","","","","","","","","","",""
"","","","","","audio-button-response","96","418567","0.0-10.0-2.32","https://mcdermottlab.mit.edu/mturk_stimuli/bjmedina/nhs-region-n_80/sequences/isi_16/len120/seq015_len120_s70_isi-1p0_0p0_16p0.json","11.19","true","f0rnvu7h07x","","7739","https://mcdermottlab.mit.edu/mturk_stimuli/bjmedina/nhs-region-n_80/mem_stim_27.wav","0","main","","","false","mem_stim_27.wav","false","-1","","1","correct_rejection"
"","","","","","html-keyboard-response","97","418625","0.0-10.0-1.33","https://mcdermottlab.mit.edu/mturk_stimuli/bjmedina/nhs-region-n_80/sequences/isi_16/len120/seq015_len120_s70_isi-1p0_0p0_16p0.json","11.19","true","f0rnvu7h07x","","null","<span style=""font-size: 40px"">+</span>","null","","","","","","","","","",""
"","","","","","audio-button-response","98","421368","0.0-10.0-2.33","https://mcdermottlab.mit.edu/mturk_stimuli/bjmedina/nhs-region-n_80/sequences/isi_16/len120/seq015_len120_s70_isi-1p0_0p0_16p0.json","11.19","true","f0rnvu7h07x","","2741","https://mcdermottlab.mit.edu/mturk_stimuli/bjmedina/nhs-region-n_80/mem_stim_67.wav","0","main","","","true","mem_stim_67.wav","false","16","","0","miss"
"","","","","","html-keyboard-response","99","421426","0.0-10.0-1.34","https://mcdermottlab.mit.edu/mturk_stimuli/bjmedina/nhs-region-n_80/sequences/isi_16/len120/seq015_len120_s70_isi-1p0_0p0_16p0.json","11.19","true","f0rnvu7h07x","","null","<span style=""font-size: 40px"">+</span>","null","","","","","","","","","",""
"","","","","","audio-button-response","100","424218","0.0-10.0-2.34","https://mcdermottlab.mit.edu/mturk_stimuli/bjmedina/nhs-region-n_80/sequences/isi_16/len120/seq015_len120_s70_isi-1p0_0p0_16p0.json","11.19","true","f0rnvu7h07x","","2523","https://mcdermottlab.mit.edu/mturk_stimuli/bjmedina/nhs-region-n_80/mem_stim_74.wav","0","main","","","false","mem_stim_74.wav","false","-1","","1","correct_rejection"
"","","","","","html-keyboard-response","101","424275","0.0-10.0-1.35","https://mcdermottlab.mit.edu/mturk_stimuli/bjmedina/nhs-region-n_80/sequences/isi_16/len120/seq015_len120_s70_isi-1p0_0p0_16p0.json","11.19","true","f0rnvu7h07x","","null","<span style=""font-size: 40px"">+</span>","null","","","","","","","","","",""
"","","","","","audio-button-response","102","426719","0.0-10.0-2.35","https://mcdermottlab.mit.edu/mturk_stimuli/bjmedina/nhs-region-n_80/sequences/isi_16/len120/seq015_len120_s70_isi-1p0_0p0_16p0.json","11.19","true","f0rnvu7h07x","","2437","https://mcdermottlab.mit.edu/mturk_stimuli/bjmedina/nhs-region-n_80/mem_stim_74.wav","0","main","","","true","mem_stim_74.wav","true","0","","0","miss"
"","","","","","html-keyboard-response","103","426776","0.0-10.0-1.36","https://mcdermottlab.mit.edu/mturk_stimuli/bjmedina/nhs-region-n_80/sequences/isi_16/len120/seq015_len120_s70_isi-1p0_0p0_16p0.json","11.19","true","f0rnvu7h07x","","null","<span style=""font-size: 40px"">+</span>","null","","","","","","","","","",""
"","","","","","audio-button-response","104","433134","0.0-10.0-2.36","https://mcdermottlab.mit.edu/mturk_stimuli/bjmedina/nhs-region-n_80/sequences/isi_16/len120/seq015_len120_s70_isi-1p0_0p0_16p0.json","11.19","true","f0rnvu7h07x","","6112","https://mcdermottlab.mit.edu/mturk_stimuli/bjmedina/nhs-region-n_80/mem_stim_11.wav","0","main","","","false","mem_stim_11.wav","false","-1","","1","correct_rejection"
"","","","","","html-keyboard-response","105","433191","0.0-10.0-1.37","https://mcdermottlab.mit.edu/mturk_stimuli/bjmedina/nhs-region-n_80/sequences/isi_16/len120/seq015_len120_s70_isi-1p0_0p0_16p0.json","11.19","true","f0rnvu7h07x","","null","<span style=""font-size: 40px"">+</span>","null","","","","","","","","","",""
"","","","","","audio-button-response","106","436100","0.0-10.0-2.37","https://mcdermottlab.mit.edu/mturk_stimuli/bjmedina/nhs-region-n_80/sequences/isi_16/len120/seq015_len120_s70_isi-1p0_0p0_16p0.json","11.19","true","f0rnvu7h07x","","2912","https://mcdermottlab.mit.edu/mturk_stimuli/bjmedina/nhs-region-n_80/mem_stim_60.wav","0","main","","","true","mem_stim_60.wav","false","16","","0","miss"
"","","","","","html-keyboard-response","107","436157","0.0-10.0-1.38","https://mcdermottlab.mit.edu/mturk_stimuli/bjmedina/nhs-region-n_80/sequences/isi_16/len120/seq015_len120_s70_isi-1p0_0p0_16p0.json","11.19","true","f0rnvu7h07x","","null","<span style=""font-size: 40px"">+</span>","null","","","","","","","","","",""
"","","","","","audio-button-response","108","440751","0.0-10.0-2.38","https://mcdermottlab.mit.edu/mturk_stimuli/bjmedina/nhs-region-n_80/sequences/isi_16/len120/seq015_len120_s70_isi-1p0_0p0_16p0.json","11.19","true","f0rnvu7h07x","","4587","https://mcdermottlab.mit.edu/mturk_stimuli/bjmedina/nhs-region-n_80/mem_stim_5.wav","1","main","","","true","mem_stim_5.wav","false","16","","1","hit"
"","","","","","html-keyboard-response","109","440808","0.0-10.0-1.39","https://mcdermottlab.mit.edu/mturk_stimuli/bjmedina/nhs-region-n_80/sequences/isi_16/len120/seq015_len120_s70_isi-1p0_0p0_16p0.json","11.19","true","f0rnvu7h07x","","null","<span style=""font-size: 40px"">+</span>","null","","","","","","","","","",""
"","","","","","audio-button-response","110","444318","0.0-10.0-2.39","https://mcdermottlab.mit.edu/mturk_stimuli/bjmedina/nhs-region-n_80/sequences/isi_16/len120/seq015_len120_s70_isi-1p0_0p0_16p0.json","11.19","true","f0rnvu7h07x","","3253","https://mcdermottlab.mit.edu/mturk_stimuli/bjmedina/nhs-region-n_80/mem_stim_10.wav","0","main","","","false","mem_stim_10.wav","false","-1","","1","correct_rejection"
"","","","","","html-keyboard-response","111","444376","0.0-10.0-1.40","https://mcdermottlab.mit.edu/mturk_stimuli/bjmedina/nhs-region-n_80/sequences/isi_16/len120/seq015_len120_s70_isi-1p0_0p0_16p0.json","11.19","true","f0rnvu7h07x","","null","<span style=""font-size: 40px"">+</span>","null","","","","","","","","","",""
"","","","","","audio-button-response","112","447735","0.0-10.0-2.40","https://mcdermottlab.mit.edu/mturk_stimuli/bjmedina/nhs-region-n_80/sequences/isi_16/len120/seq015_len120_s70_isi-1p0_0p0_16p0.json","11.19","true","f0rnvu7h07x","","3115","https://mcdermottlab.mit.edu/mturk_stimuli/bjmedina/nhs-region-n_80/mem_stim_53.wav","2","main","","","false","mem_stim_53.wav","false","-1","","1","correct_rejection"
"","","","","","html-keyboard-response","113","447793","0.0-10.0-1.41","https://mcdermottlab.mit.edu/mturk_stimuli/bjmedina/nhs-region-n_80/sequences/isi_16/len120/seq015_len120_s70_isi-1p0_0p0_16p0.json","11.19","true","f0rnvu7h07x","","null","<span style=""font-size: 40px"">+</span>","null","","","","","","","","","",""
"","","","","","audio-button-response","114","450951","0.0-10.0-2.41","https://mcdermottlab.mit.edu/mturk_stimuli/bjmedina/nhs-region-n_80/sequences/isi_16/len120/seq015_len120_s70_isi-1p0_0p0_16p0.json","11.19","true","f0rnvu7h07x","","2928","https://mcdermottlab.mit.edu/mturk_stimuli/bjmedina/nhs-region-n_80/mem_stim_62.wav","0","main","","","false","mem_stim_62.wav","false","-1","","1","correct_rejection"
"","","","","","html-keyboard-response","115","451009","0.0-10.0-1.42","https://mcdermottlab.mit.edu/mturk_stimuli/bjmedina/nhs-region-n_80/sequences/isi_16/len120/seq015_len120_s70_isi-1p0_0p0_16p0.json","11.19","true","f0rnvu7h07x","","null","<span style=""font-size: 40px"">+</span>","null","","","","","","","","","",""
"","","","","","audio-button-response","116","453885","0.0-10.0-2.42","https://mcdermottlab.mit.edu/mturk_stimuli/bjmedina/nhs-region-n_80/sequences/isi_16/len120/seq015_len120_s70_isi-1p0_0p0_16p0.json","11.19","true","f0rnvu7h07x","","2635","https://mcdermottlab.mit.edu/mturk_stimuli/bjmedina/nhs-region-n_80/mem_stim_49.wav","0","main","","","false","mem_stim_49.wav","false","-1","","1","correct_rejection"
"","","","","","html-keyboard-response","117","453943","0.0-10.0-1.43","https://mcdermottlab.mit.edu/mturk_stimuli/bjmedina/nhs-region-n_80/sequences/isi_16/len120/seq015_len120_s70_isi-1p0_0p0_16p0.json","11.19","true","f0rnvu7h07x","","null","<span style=""font-size: 40px"">+</span>","null","","","","","","","","","",""
"","","","","","audio-button-response","118","456901","0.0-10.0-2.43","https://mcdermottlab.mit.edu/mturk_stimuli/bjmedina/nhs-region-n_80/sequences/isi_16/len120/seq015_len120_s70_isi-1p0_0p0_16p0.json","11.19","true","f0rnvu7h07x","","2720","https://mcdermottlab.mit.edu/mturk_stimuli/bjmedina/nhs-region-n_80/mem_stim_64.wav","0","main","","","false","mem_stim_64.wav","false","-1","","1","correct_rejection"
"","","","","","html-keyboard-response","119","456959","0.0-10.0-1.44","https://mcdermottlab.mit.edu/mturk_stimuli/bjmedina/nhs-region-n_80/sequences/isi_16/len120/seq015_len120_s70_isi-1p0_0p0_16p0.json","11.19","true","f0rnvu7h07x","","null","<span style=""font-size: 40px"">+</span>","null","","","","","","","","","",""
"","","","","","audio-button-response","120","463667","0.0-10.0-2.44","https://mcdermottlab.mit.edu/mturk_stimuli/bjmedina/nhs-region-n_80/sequences/isi_16/len120/seq015_len120_s70_isi-1p0_0p0_16p0.json","11.19","true","f0rnvu7h07x","","6469","https://mcdermottlab.mit.edu/mturk_stimuli/bjmedina/nhs-region-n_80/mem_stim_0.wav","0","main","","","false","mem_stim_0.wav","false","-1","","1","correct_rejection"
"","","","","","html-keyboard-response","121","463725","0.0-10.0-1.45","https://mcdermottlab.mit.edu/mturk_stimuli/bjmedina/nhs-region-n_80/sequences/isi_16/len120/seq015_len120_s70_isi-1p0_0p0_16p0.json","11.19","true","f0rnvu7h07x","","null","<span style=""font-size: 40px"">+</span>","null","","","","","","","","","",""
"","","","","","audio-button-response","122","466834","0.0-10.0-2.45","https://mcdermottlab.mit.edu/mturk_stimuli/bjmedina/nhs-region-n_80/sequences/isi_16/len120/seq015_len120_s70_isi-1p0_0p0_16p0.json","11.19","true","f0rnvu7h07x","","2752","https://mcdermottlab.mit.edu/mturk_stimuli/bjmedina/nhs-region-n_80/mem_stim_18.wav","0","main","","","false","mem_stim_18.wav","false","-1","","1","correct_rejection"
"","","","","","html-keyboard-response","123","466891","0.0-10.0-1.46","https://mcdermottlab.mit.edu/mturk_stimuli/bjmedina/nhs-region-n_80/sequences/isi_16/len120/seq015_len120_s70_isi-1p0_0p0_16p0.json","11.19","true","f0rnvu7h07x","","null","<span style=""font-size: 40px"">+</span>","null","","","","","","","","","",""
"","","","","","audio-button-response","124","469850","0.0-10.0-2.46","https://mcdermottlab.mit.edu/mturk_stimuli/bjmedina/nhs-region-n_80/sequences/isi_16/len120/seq015_len120_s70_isi-1p0_0p0_16p0.json","11.19","true","f0rnvu7h07x","","2725","https://mcdermottlab.mit.edu/mturk_stimuli/bjmedina/nhs-region-n_80/mem_stim_2.wav","0","main","","","false","mem_stim_2.wav","false","-1","","1","correct_rejection"
"","","","","","html-keyboard-response","125","469908","0.0-10.0-1.47","https://mcdermottlab.mit.edu/mturk_stimuli/bjmedina/nhs-region-n_80/sequences/isi_16/len120/seq015_len120_s70_isi-1p0_0p0_16p0.json","11.19","true","f0rnvu7h07x","","null","<span style=""font-size: 40px"">+</span>","null","","","","","","","","","",""
"","","","","","audio-button-response","126","476368","0.0-10.0-2.47","https://mcdermottlab.mit.edu/mturk_stimuli/bjmedina/nhs-region-n_80/sequences/isi_16/len120/seq015_len120_s70_isi-1p0_0p0_16p0.json","11.19","true","f0rnvu7h07x","","6459","https://mcdermottlab.mit.edu/mturk_stimuli/bjmedina/nhs-region-n_80/mem_stim_28.wav","0","main","","","true","mem_stim_28.wav","false","16","","0","miss"
"","","","","","html-keyboard-response","127","476425","0.0-10.0-1.48","https://mcdermottlab.mit.edu/mturk_stimuli/bjmedina/nhs-region-n_80/sequences/isi_16/len120/seq015_len120_s70_isi-1p0_0p0_16p0.json","11.19","true","f0rnvu7h07x","","null","<span style=""font-size: 40px"">+</span>","null","","","","","","","","","",""
"","","","","","audio-button-response","128","479184","0.0-10.0-2.48","https://mcdermottlab.mit.edu/mturk_stimuli/bjmedina/nhs-region-n_80/sequences/isi_16/len120/seq015_len120_s70_isi-1p0_0p0_16p0.json","11.19","true","f0rnvu7h07x","","2757","https://mcdermottlab.mit.edu/mturk_stimuli/bjmedina/nhs-region-n_80/mem_stim_8.wav","0","main","","","true","mem_stim_8.wav","false","16","","0","miss"
"","","","","","html-keyboard-response","129","479243","0.0-10.0-1.49","https://mcdermottlab.mit.edu/mturk_stimuli/bjmedina/nhs-region-n_80/sequences/isi_16/len120/seq015_len120_s70_isi-1p0_0p0_16p0.json","11.19","true","f0rnvu7h07x","","null","<span style=""font-size: 40px"">+</span>","null","","","","","","","","","",""
"","","","","","audio-button-response","130","495668","0.0-10.0-2.49","https://mcdermottlab.mit.edu/mturk_stimuli/bjmedina/nhs-region-n_80/sequences/isi_16/len120/seq015_len120_s70_isi-1p0_0p0_16p0.json","11.19","true","f0rnvu7h07x","","16123","https://mcdermottlab.mit.edu/mturk_stimuli/bjmedina/nhs-region-n_80/mem_stim_14.wav","0","main","","","false","mem_stim_14.wav","false","-1","","1","correct_rejection"
"","","","","","html-keyboard-response","131","495725","0.0-10.0-1.50","https://mcdermottlab.mit.edu/mturk_stimuli/bjmedina/nhs-region-n_80/sequences/isi_16/len120/seq015_len120_s70_isi-1p0_0p0_16p0.json","11.19","true","f0rnvu7h07x","","null","<span style=""font-size: 40px"">+</span>","null","","","","","","","","","",""
"","","","","","audio-button-response","132","498884","0.0-10.0-2.50","https://mcdermottlab.mit.edu/mturk_stimuli/bjmedina/nhs-region-n_80/sequences/isi_16/len120/seq015_len120_s70_isi-1p0_0p0_16p0.json","11.19","true","f0rnvu7h07x","","2795","https://mcdermottlab.mit.edu/mturk_stimuli/bjmedina/nhs-region-n_80/mem_stim_43.wav","0","main","","","false","mem_stim_43.wav","false","-1","","1","correct_rejection"
"","","","","","html-keyboard-response","133","498941","0.0-10.0-1.51","https://mcdermottlab.mit.edu/mturk_stimuli/bjmedina/nhs-region-n_80/sequences/isi_16/len120/seq015_len120_s70_isi-1p0_0p0_16p0.json","11.19","true","f0rnvu7h07x","","null","<span style=""font-size: 40px"">+</span>","null","","","","","","","","","",""
"","","","","","audio-button-response","134","503400","0.0-10.0-2.51","https://mcdermottlab.mit.edu/mturk_stimuli/bjmedina/nhs-region-n_80/sequences/isi_16/len120/seq015_len120_s70_isi-1p0_0p0_16p0.json","11.19","true","f0rnvu7h07x","","4219","https://mcdermottlab.mit.edu/mturk_stimuli/bjmedina/nhs-region-n_80/mem_stim_15.wav","0","main","","","false","mem_stim_15.wav","false","-1","","1","correct_rejection"
"","","","","","html-keyboard-response","135","503459","0.0-10.0-1.52","https://mcdermottlab.mit.edu/mturk_stimuli/bjmedina/nhs-region-n_80/sequences/isi_16/len120/seq015_len120_s70_isi-1p0_0p0_16p0.json","11.19","true","f0rnvu7h07x","","null","<span style=""font-size: 40px"">+</span>","null","","","","","","","","","",""
"","","","","","audio-button-response","136","508300","0.0-10.0-2.52","https://mcdermottlab.mit.edu/mturk_stimuli/bjmedina/nhs-region-n_80/sequences/isi_16/len120/seq015_len120_s70_isi-1p0_0p0_16p0.json","11.19","true","f0rnvu7h07x","","4608","https://mcdermottlab.mit.edu/mturk_stimuli/bjmedina/nhs-region-n_80/mem_stim_70.wav","2","main","","","false","mem_stim_70.wav","false","-1","","1","correct_rejection"
"","","","","","html-keyboard-response","137","508357","0.0-10.0-1.53","https://mcdermottlab.mit.edu/mturk_stimuli/bjmedina/nhs-region-n_80/sequences/isi_16/len120/seq015_len120_s70_isi-1p0_0p0_16p0.json","11.19","true","f0rnvu7h07x","","null","<span style=""font-size: 40px"">+</span>","null","","","","","","","","","",""
"","","","","","audio-button-response","138","510768","0.0-10.0-2.53","https://mcdermottlab.mit.edu/mturk_stimuli/bjmedina/nhs-region-n_80/sequences/isi_16/len120/seq015_len120_s70_isi-1p0_0p0_16p0.json","11.19","true","f0rnvu7h07x","","2411","https://mcdermottlab.mit.edu/mturk_stimuli/bjmedina/nhs-region-n_80/mem_stim_70.wav","3","main","","","true","mem_stim_70.wav","true","0","","0","miss"
"","","","","","html-keyboard-response","139","510827","0.0-10.0-1.54","https://mcdermottlab.mit.edu/mturk_stimuli/bjmedina/nhs-region-n_80/sequences/isi_16/len120/seq015_len120_s70_isi-1p0_0p0_16p0.json","11.19","true","f0rnvu7h07x","","null","<span style=""font-size: 40px"">+</span>","null","","","","","","","","","",""
"","","","","","audio-button-response","140","514601","0.0-10.0-2.54","https://mcdermottlab.mit.edu/mturk_stimuli/bjmedina/nhs-region-n_80/sequences/isi_16/len120/seq015_len120_s70_isi-1p0_0p0_16p0.json","11.19","true","f0rnvu7h07x","","3520","https://mcdermottlab.mit.edu/mturk_stimuli/bjmedina/nhs-region-n_80/mem_stim_48.wav","0","main","","","false","mem_stim_48.wav","false","-1","","1","correct_rejection"
"","","","","","html-keyboard-response","141","514658","0.0-10.0-1.55","https://mcdermottlab.mit.edu/mturk_stimuli/bjmedina/nhs-region-n_80/sequences/isi_16/len120/seq015_len120_s70_isi-1p0_0p0_16p0.json","11.19","true","f0rnvu7h07x","","null","<span style=""font-size: 40px"">+</span>","null","","","","","","","","","",""
"","","","","","audio-button-response","142","517551","0.0-10.0-2.55","https://mcdermottlab.mit.edu/mturk_stimuli/bjmedina/nhs-region-n_80/sequences/isi_16/len120/seq015_len120_s70_isi-1p0_0p0_16p0.json","11.19","true","f0rnvu7h07x","","2635","https://mcdermottlab.mit.edu/mturk_stimuli/bjmedina/nhs-region-n_80/mem_stim_29.wav","2","main","","","false","mem_stim_29.wav","false","-1","","1","correct_rejection"
"","","","","","html-keyboard-response","143","517610","0.0-10.0-1.56","https://mcdermottlab.mit.edu/mturk_stimuli/bjmedina/nhs-region-n_80/sequences/isi_16/len120/seq015_len120_s70_isi-1p0_0p0_16p0.json","11.19","true","f0rnvu7h07x","","null","<span style=""font-size: 40px"">+</span>","null","","","","","","","","","",""
"","","","","","audio-button-response","144","521750","0.0-10.0-2.56","https://mcdermottlab.mit.edu/mturk_stimuli/bjmedina/nhs-region-n_80/sequences/isi_16/len120/seq015_len120_s70_isi-1p0_0p0_16p0.json","11.19","true","f0rnvu7h07x","","3904","https://mcdermottlab.mit.edu/mturk_stimuli/bjmedina/nhs-region-n_80/mem_stim_13.wav","0","main","","","false","mem_stim_13.wav","false","-1","","1","correct_rejection"
"","","","","","html-keyboard-response","145","521809","0.0-10.0-1.57","https://mcdermottlab.mit.edu/mturk_stimuli/bjmedina/nhs-region-n_80/sequences/isi_16/len120/seq015_len120_s70_isi-1p0_0p0_16p0.json","11.19","true","f0rnvu7h07x","","null","<span style=""font-size: 40px"">+</span>","null","","","","","","","","","",""
"","","","","","audio-button-response","146","524851","0.0-10.0-2.57","https://mcdermottlab.mit.edu/mturk_stimuli/bjmedina/nhs-region-n_80/sequences/isi_16/len120/seq015_len120_s70_isi-1p0_0p0_16p0.json","11.19","true","f0rnvu7h07x","","3040","https://mcdermottlab.mit.edu/mturk_stimuli/bjmedina/nhs-region-n_80/mem_stim_53.wav","2","main","","","true","mem_stim_53.wav","false","16","","0","miss"
"","","","","","html-keyboard-response","147","524910","0.0-10.0-1.58","https://mcdermottlab.mit.edu/mturk_stimuli/bjmedina/nhs-region-n_80/sequences/isi_16/len120/seq015_len120_s70_isi-1p0_0p0_16p0.json","11.19","true","f0rnvu7h07x","","null","<span style=""font-size: 40px"">+</span>","null","","","","","","","","","",""
"","","","","","audio-button-response","148","529216","0.0-10.0-2.58","https://mcdermottlab.mit.edu/mturk_stimuli/bjmedina/nhs-region-n_80/sequences/isi_16/len120/seq015_len120_s70_isi-1p0_0p0_16p0.json","11.19","true","f0rnvu7h07x","","4059","https://mcdermottlab.mit.edu/mturk_stimuli/bjmedina/nhs-region-n_80/mem_stim_32.wav","1","main","","","false","mem_stim_32.wav","false","-1","","0","false_alarm"
"","","","","","html-keyboard-response","149","529272","0.0-10.0-1.59","https://mcdermottlab.mit.edu/mturk_stimuli/bjmedina/nhs-region-n_80/sequences/isi_16/len120/seq015_len120_s70_isi-1p0_0p0_16p0.json","11.19","true","f0rnvu7h07x","","null","<span style=""font-size: 40px"">+</span>","null","","","","","","","","","",""
"","","","","","audio-button-response","150","532201","0.0-10.0-2.59","https://mcdermottlab.mit.edu/mturk_stimuli/bjmedina/nhs-region-n_80/sequences/isi_16/len120/seq015_len120_s70_isi-1p0_0p0_16p0.json","11.19","true","f0rnvu7h07x","","2928","https://mcdermottlab.mit.edu/mturk_stimuli/bjmedina/nhs-region-n_80/mem_stim_32.wav","3","main","","","true","mem_stim_32.wav","true","0","","0","miss"
"","","","","","html-keyboard-response","151","532259","0.0-10.0-1.60","https://mcdermottlab.mit.edu/mturk_stimuli/bjmedina/nhs-region-n_80/sequences/isi_16/len120/seq015_len120_s70_isi-1p0_0p0_16p0.json","11.19","true","f0rnvu7h07x","","null","<span style=""font-size: 40px"">+</span>","null","","","","","","","","","",""
"","","","","","audio-button-response","152","536151","0.0-10.0-2.60","https://mcdermottlab.mit.edu/mturk_stimuli/bjmedina/nhs-region-n_80/sequences/isi_16/len120/seq015_len120_s70_isi-1p0_0p0_16p0.json","11.19","true","f0rnvu7h07x","","3648","https://mcdermottlab.mit.edu/mturk_stimuli/bjmedina/nhs-region-n_80/mem_stim_6.wav","1","main","","","false","mem_stim_6.wav","false","-1","","0","false_alarm"
"","","","","","html-keyboard-response","153","536210","0.0-10.0-1.61","https://mcdermottlab.mit.edu/mturk_stimuli/bjmedina/nhs-region-n_80/sequences/isi_16/len120/seq015_len120_s70_isi-1p0_0p0_16p0.json","11.19","true","f0rnvu7h07x","","null","<span style=""font-size: 40px"">+</span>","null","","","","","","","","","",""
"","","","","","audio-button-response","154","539184","0.0-10.0-2.61","https://mcdermottlab.mit.edu/mturk_stimuli/bjmedina/nhs-region-n_80/sequences/isi_16/len120/seq015_len120_s70_isi-1p0_0p0_16p0.json","11.19","true","f0rnvu7h07x","","2741","https://mcdermottlab.mit.edu/mturk_stimuli/bjmedina/nhs-region-n_80/mem_stim_16.wav","1","main","","","false","mem_stim_16.wav","false","-1","","0","false_alarm"
"","","","","","html-keyboard-response","155","539244","0.0-10.0-1.62","https://mcdermottlab.mit.edu/mturk_stimuli/bjmedina/nhs-region-n_80/sequences/isi_16/len120/seq015_len120_s70_isi-1p0_0p0_16p0.json","11.19","true","f0rnvu7h07x","","null","<span style=""font-size: 40px"">+</span>","null","","","","","","","","","",""
"","","","","","audio-button-response","156","541984","0.0-10.0-2.62","https://mcdermottlab.mit.edu/mturk_stimuli/bjmedina/nhs-region-n_80/sequences/isi_16/len120/seq015_len120_s70_isi-1p0_0p0_16p0.json","11.19","true","f0rnvu7h07x","","2741","https://mcdermottlab.mit.edu/mturk_stimuli/bjmedina/nhs-region-n_80/mem_stim_18.wav","0","main","","","true","mem_stim_18.wav","false","16","","0","miss"
"","","","","","html-keyboard-response","157","542043","0.0-10.0-1.63","https://mcdermottlab.mit.edu/mturk_stimuli/bjmedina/nhs-region-n_80/sequences/isi_16/len120/seq015_len120_s70_isi-1p0_0p0_16p0.json","11.19","true","f0rnvu7h07x","","null","<span style=""font-size: 40px"">+</span>","null","","","","","","","","","",""
"","","","","","audio-button-response","158","544767","0.0-10.0-2.63","https://mcdermottlab.mit.edu/mturk_stimuli/bjmedina/nhs-region-n_80/sequences/isi_16/len120/seq015_len120_s70_isi-1p0_0p0_16p0.json","11.19","true","f0rnvu7h07x","","2725","https://mcdermottlab.mit.edu/mturk_stimuli/bjmedina/nhs-region-n_80/mem_stim_2.wav","0","main","","","true","mem_stim_2.wav","false","16","","0","miss"
"","","","","","html-keyboard-response","159","544826","0.0-10.0-1.64","https://mcdermottlab.mit.edu/mturk_stimuli/bjmedina/nhs-region-n_80/sequences/isi_16/len120/seq015_len120_s70_isi-1p0_0p0_16p0.json","11.19","true","f0rnvu7h07x","","null","<span style=""font-size: 40px"">+</span>","null","","","","","","","","","",""
"","","","","","audio-button-response","160","550051","0.0-10.0-2.64","https://mcdermottlab.mit.edu/mturk_stimuli/bjmedina/nhs-region-n_80/sequences/isi_16/len120/seq015_len120_s70_isi-1p0_0p0_16p0.json","11.19","true","f0rnvu7h07x","","4960","https://mcdermottlab.mit.edu/mturk_stimuli/bjmedina/nhs-region-n_80/mem_stim_20.wav","0","main","","","false","mem_stim_20.wav","false","-1","","1","correct_rejection"
"","","","","","html-keyboard-response","161","550110","0.0-10.0-1.65","https://mcdermottlab.mit.edu/mturk_stimuli/bjmedina/nhs-region-n_80/sequences/isi_16/len120/seq015_len120_s70_isi-1p0_0p0_16p0.json","11.19","true","f0rnvu7h07x","","null","<span style=""font-size: 40px"">+</span>","null","","","","","","","","","",""
"","","","","","audio-button-response","162","554551","0.0-10.0-2.65","https://mcdermottlab.mit.edu/mturk_stimuli/bjmedina/nhs-region-n_80/sequences/isi_16/len120/seq015_len120_s70_isi-1p0_0p0_16p0.json","11.19","true","f0rnvu7h07x","","4059","https://mcdermottlab.mit.edu/mturk_stimuli/bjmedina/nhs-region-n_80/mem_stim_36.wav","2","main","","","false","mem_stim_36.wav","false","-1","","1","correct_rejection"
"","","","","","html-keyboard-response","163","554610","0.0-10.0-1.66","https://mcdermottlab.mit.edu/mturk_stimuli/bjmedina/nhs-region-n_80/sequences/isi_16/len120/seq015_len120_s70_isi-1p0_0p0_16p0.json","11.19","true","f0rnvu7h07x","","null","<span style=""font-size: 40px"">+</span>","null","","","","","","","","","",""
"","","","","","audio-button-response","164","558250","0.0-10.0-2.66","https://mcdermottlab.mit.edu/mturk_stimuli/bjmedina/nhs-region-n_80/sequences/isi_16/len120/seq015_len120_s70_isi-1p0_0p0_16p0.json","11.19","true","f0rnvu7h07x","","3637","https://mcdermottlab.mit.edu/mturk_stimuli/bjmedina/nhs-region-n_80/mem_stim_14.wav","0","main","","","true","mem_stim_14.wav","false","16","","0","miss"
"","","","","","html-keyboard-response","165","558311","0.0-10.0-1.67","https://mcdermottlab.mit.edu/mturk_stimuli/bjmedina/nhs-region-n_80/sequences/isi_16/len120/seq015_len120_s70_isi-1p0_0p0_16p0.json","11.19","true","f0rnvu7h07x","","null","<span style=""font-size: 40px"">+</span>","null","","","","","","","","","",""
"","","","","","audio-button-response","166","562184","0.0-10.0-2.67","https://mcdermottlab.mit.edu/mturk_stimuli/bjmedina/nhs-region-n_80/sequences/isi_16/len120/seq015_len120_s70_isi-1p0_0p0_16p0.json","11.19","true","f0rnvu7h07x","","3611","https://mcdermottlab.mit.edu/mturk_stimuli/bjmedina/nhs-region-n_80/mem_stim_78.wav","0","main","","","false","mem_stim_78.wav","false","-1","","1","correct_rejection"
"","","","","","html-keyboard-response","167","562242","0.0-10.0-1.68","https://mcdermottlab.mit.edu/mturk_stimuli/bjmedina/nhs-region-n_80/sequences/isi_16/len120/seq015_len120_s70_isi-1p0_0p0_16p0.json","11.19","true","f0rnvu7h07x","","null","<span style=""font-size: 40px"">+</span>","null","","","","","","","","","",""
"","","","","","audio-button-response","168","564634","0.0-10.0-2.68","https://mcdermottlab.mit.edu/mturk_stimuli/bjmedina/nhs-region-n_80/sequences/isi_16/len120/seq015_len120_s70_isi-1p0_0p0_16p0.json","11.19","true","f0rnvu7h07x","","2389","https://mcdermottlab.mit.edu/mturk_stimuli/bjmedina/nhs-region-n_80/mem_stim_78.wav","3","main","","","true","mem_stim_78.wav","true","0","","0","miss"
"","","","","","html-keyboard-response","169","564694","0.0-10.0-1.69","https://mcdermottlab.mit.edu/mturk_stimuli/bjmedina/nhs-region-n_80/sequences/isi_16/len120/seq015_len120_s70_isi-1p0_0p0_16p0.json","11.19","true","f0rnvu7h07x","","null","<span style=""font-size: 40px"">+</span>","null","","","","","","","","","",""
"","","","","","audio-button-response","170","568050","0.0-10.0-2.69","https://mcdermottlab.mit.edu/mturk_stimuli/bjmedina/nhs-region-n_80/sequences/isi_16/len120/seq015_len120_s70_isi-1p0_0p0_16p0.json","11.19","true","f0rnvu7h07x","","3104","https://mcdermottlab.mit.edu/mturk_stimuli/bjmedina/nhs-region-n_80/mem_stim_54.wav","0","main","","","false","mem_stim_54.wav","false","-1","","1","correct_rejection"
"","","","","","html-keyboard-response","171","568109","0.0-10.0-1.70","https://mcdermottlab.mit.edu/mturk_stimuli/bjmedina/nhs-region-n_80/sequences/isi_16/len120/seq015_len120_s70_isi-1p0_0p0_16p0.json","11.19","true","f0rnvu7h07x","","null","<span style=""font-size: 40px"">+</span>","null","","","","","","","","","",""
"","","","","","audio-button-response","172","571534","0.0-10.0-2.70","https://mcdermottlab.mit.edu/mturk_stimuli/bjmedina/nhs-region-n_80/sequences/isi_16/len120/seq015_len120_s70_isi-1p0_0p0_16p0.json","11.19","true","f0rnvu7h07x","","3189","https://mcdermottlab.mit.edu/mturk_stimuli/bjmedina/nhs-region-n_80/mem_stim_57.wav","2","main","","","false","mem_stim_57.wav","false","-1","","1","correct_rejection"
"","","","","","html-keyboard-response","173","571592","0.0-10.0-1.71","https://mcdermottlab.mit.edu/mturk_stimuli/bjmedina/nhs-region-n_80/sequences/isi_16/len120/seq015_len120_s70_isi-1p0_0p0_16p0.json","11.19","true","f0rnvu7h07x","","null","<span style=""font-size: 40px"">+</span>","null","","","","","","","","","",""
"","","","","","audio-button-response","174","575684","0.0-10.0-2.71","https://mcdermottlab.mit.edu/mturk_stimuli/bjmedina/nhs-region-n_80/sequences/isi_16/len120/seq015_len120_s70_isi-1p0_0p0_16p0.json","11.19","true","f0rnvu7h07x","","3861","https://mcdermottlab.mit.edu/mturk_stimuli/bjmedina/nhs-region-n_80/mem_stim_76.wav","0","main","","","false","mem_stim_76.wav","false","-1","","1","correct_rejection"
"","","","","","html-keyboard-response","175","575744","0.0-10.0-1.72","https://mcdermottlab.mit.edu/mturk_stimuli/bjmedina/nhs-region-n_80/sequences/isi_16/len120/seq015_len120_s70_isi-1p0_0p0_16p0.json","11.19","true","f0rnvu7h07x","","null","<span style=""font-size: 40px"">+</span>","null","","","","","","","","","",""
"","","","","","audio-button-response","176","578134","0.0-10.0-2.72","https://mcdermottlab.mit.edu/mturk_stimuli/bjmedina/nhs-region-n_80/sequences/isi_16/len120/seq015_len120_s70_isi-1p0_0p0_16p0.json","11.19","true","f0rnvu7h07x","","2389","https://mcdermottlab.mit.edu/mturk_stimuli/bjmedina/nhs-region-n_80/mem_stim_76.wav","3","main","","","true","mem_stim_76.wav","true","0","","0","miss"
"","","","","","html-keyboard-response","177","578195","0.0-10.0-1.73","https://mcdermottlab.mit.edu/mturk_stimuli/bjmedina/nhs-region-n_80/sequences/isi_16/len120/seq015_len120_s70_isi-1p0_0p0_16p0.json","11.19","true","f0rnvu7h07x","","null","<span style=""font-size: 40px"">+</span>","null","","","","","","","","","",""
"","","","","","audio-button-response","178","584568","0.0-10.0-2.73","https://mcdermottlab.mit.edu/mturk_stimuli/bjmedina/nhs-region-n_80/sequences/isi_16/len120/seq015_len120_s70_isi-1p0_0p0_16p0.json","11.19","true","f0rnvu7h07x","","6101","https://mcdermottlab.mit.edu/mturk_stimuli/bjmedina/nhs-region-n_80/mem_stim_12.wav","0","main","","","false","mem_stim_12.wav","false","-1","","1","correct_rejection"
"","","","","","html-keyboard-response","179","584628","0.0-10.0-1.74","https://mcdermottlab.mit.edu/mturk_stimuli/bjmedina/nhs-region-n_80/sequences/isi_16/len120/seq015_len120_s70_isi-1p0_0p0_16p0.json","11.19","true","f0rnvu7h07x","","null","<span style=""font-size: 40px"">+</span>","null","","","","","","","","","",""
"","","","","","audio-button-response","180","588084","0.0-10.0-2.74","https://mcdermottlab.mit.edu/mturk_stimuli/bjmedina/nhs-region-n_80/sequences/isi_16/len120/seq015_len120_s70_isi-1p0_0p0_16p0.json","11.19","true","f0rnvu7h07x","","3456","https://mcdermottlab.mit.edu/mturk_stimuli/bjmedina/nhs-region-n_80/mem_stim_12.wav","2","main","","","true","mem_stim_12.wav","true","0","","0","miss"
"","","","","","html-keyboard-response","181","588144","0.0-10.0-1.75","https://mcdermottlab.mit.edu/mturk_stimuli/bjmedina/nhs-region-n_80/sequences/isi_16/len120/seq015_len120_s70_isi-1p0_0p0_16p0.json","11.19","true","f0rnvu7h07x","","null","<span style=""font-size: 40px"">+</span>","null","","","","","","","","","",""
"","","","","","audio-button-response","182","591168","0.0-10.0-2.75","https://mcdermottlab.mit.edu/mturk_stimuli/bjmedina/nhs-region-n_80/sequences/isi_16/len120/seq015_len120_s70_isi-1p0_0p0_16p0.json","11.19","true","f0rnvu7h07x","","2715","https://mcdermottlab.mit.edu/mturk_stimuli/bjmedina/nhs-region-n_80/mem_stim_72.wav","2","main","","","false","mem_stim_72.wav","false","-1","","1","correct_rejection"
"","","","","","html-keyboard-response","183","591229","0.0-10.0-1.76","https://mcdermottlab.mit.edu/mturk_stimuli/bjmedina/nhs-region-n_80/sequences/isi_16/len120/seq015_len120_s70_isi-1p0_0p0_16p0.json","11.19","true","f0rnvu7h07x","","null","<span style=""font-size: 40px"">+</span>","null","","","","","","","","","",""
"","","","","","audio-button-response","184","594884","0.0-10.0-2.76","https://mcdermottlab.mit.edu/mturk_stimuli/bjmedina/nhs-region-n_80/sequences/isi_16/len120/seq015_len120_s70_isi-1p0_0p0_16p0.json","11.19","true","f0rnvu7h07x","","3413","https://mcdermottlab.mit.edu/mturk_stimuli/bjmedina/nhs-region-n_80/mem_stim_59.wav","0","main","","","false","mem_stim_59.wav","false","-1","","1","correct_rejection"
"","","","","","html-keyboard-response","185","594943","0.0-10.0-1.77","https://mcdermottlab.mit.edu/mturk_stimuli/bjmedina/nhs-region-n_80/sequences/isi_16/len120/seq015_len120_s70_isi-1p0_0p0_16p0.json","11.19","true","f0rnvu7h07x","","null","<span style=""font-size: 40px"">+</span>","null","","","","","","","","","",""
"","","","","","audio-button-response","186","597718","0.0-10.0-2.77","https://mcdermottlab.mit.edu/mturk_stimuli/bjmedina/nhs-region-n_80/sequences/isi_16/len120/seq015_len120_s70_isi-1p0_0p0_16p0.json","11.19","true","f0rnvu7h07x","","2773","https://mcdermottlab.mit.edu/mturk_stimuli/bjmedina/nhs-region-n_80/mem_stim_6.wav","2","main","","","true","mem_stim_6.wav","false","16","","0","miss"
"","","","","","html-keyboard-response","187","597777","0.0-10.0-1.78","https://mcdermottlab.mit.edu/mturk_stimuli/bjmedina/nhs-region-n_80/sequences/isi_16/len120/seq015_len120_s70_isi-1p0_0p0_16p0.json","11.19","true","f0rnvu7h07x","","null","<span style=""font-size: 40px"">+</span>","null","","","","","","","","","",""
"","","","","","audio-button-response","188","601301","0.0-10.0-2.78","https://mcdermottlab.mit.edu/mturk_stimuli/bjmedina/nhs-region-n_80/sequences/isi_16/len120/seq015_len120_s70_isi-1p0_0p0_16p0.json","11.19","true","f0rnvu7h07x","","3525","https://mcdermottlab.mit.edu/mturk_stimuli/bjmedina/nhs-region-n_80/mem_stim_16.wav","0","main","","","true","mem_stim_16.wav","false","16","","0","miss"
"","","","","","html-keyboard-response","189","601361","0.0-10.0-1.79","https://mcdermottlab.mit.edu/mturk_stimuli/bjmedina/nhs-region-n_80/sequences/isi_16/len120/seq015_len120_s70_isi-1p0_0p0_16p0.json","11.19","true","f0rnvu7h07x","","null","<span style=""font-size: 40px"">+</span>","null","","","","","","","","","",""
"","","","","","audio-button-response","190","604301","0.0-10.0-2.79","https://mcdermottlab.mit.edu/mturk_stimuli/bjmedina/nhs-region-n_80/sequences/isi_16/len120/seq015_len120_s70_isi-1p0_0p0_16p0.json","11.19","true","f0rnvu7h07x","","2619","https://mcdermottlab.mit.edu/mturk_stimuli/bjmedina/nhs-region-n_80/mem_stim_77.wav","0","main","","","false","mem_stim_77.wav","false","-1","","1","correct_rejection"
"","","","","","html-keyboard-response","191","604361","0.0-10.0-1.80","https://mcdermottlab.mit.edu/mturk_stimuli/bjmedina/nhs-region-n_80/sequences/isi_16/len120/seq015_len120_s70_isi-1p0_0p0_16p0.json","11.19","true","f0rnvu7h07x","","null","<span style=""font-size: 40px"">+</span>","null","","","","","","","","","",""
"","","","","","audio-button-response","192","607850","0.0-10.0-2.80","https://mcdermottlab.mit.edu/mturk_stimuli/bjmedina/nhs-region-n_80/sequences/isi_16/len120/seq015_len120_s70_isi-1p0_0p0_16p0.json","11.19","true","f0rnvu7h07x","","3216","https://mcdermottlab.mit.edu/mturk_stimuli/bjmedina/nhs-region-n_80/mem_stim_75.wav","0","main","","","false","mem_stim_75.wav","false","-1","","1","correct_rejection"
"","","","","","html-keyboard-response","193","607909","0.0-10.0-1.81","https://mcdermottlab.mit.edu/mturk_stimuli/bjmedina/nhs-region-n_80/sequences/isi_16/len120/seq015_len120_s70_isi-1p0_0p0_16p0.json","11.19","true","f0rnvu7h07x","","null","<span style=""font-size: 40px"">+</span>","null","","","","","","","","","",""
"","","","","","audio-button-response","194","611851","0.0-10.0-2.81","https://mcdermottlab.mit.edu/mturk_stimuli/bjmedina/nhs-region-n_80/sequences/isi_16/len120/seq015_len120_s70_isi-1p0_0p0_16p0.json","11.19","true","f0rnvu7h07x","","3941","https://mcdermottlab.mit.edu/mturk_stimuli/bjmedina/nhs-region-n_80/mem_stim_75.wav","3","main","","","true","mem_stim_75.wav","true","0","","0","miss"
"","","","","","html-keyboard-response","195","611912","0.0-10.0-1.82","https://mcdermottlab.mit.edu/mturk_stimuli/bjmedina/nhs-region-n_80/sequences/isi_16/len120/seq015_len120_s70_isi-1p0_0p0_16p0.json","11.19","true","f0rnvu7h07x","","null","<span style=""font-size: 40px"">+</span>","null","","","","","","","","","",""
"","","","","","audio-button-response","196","615134","0.0-10.0-2.82","https://mcdermottlab.mit.edu/mturk_stimuli/bjmedina/nhs-region-n_80/sequences/isi_16/len120/seq015_len120_s70_isi-1p0_0p0_16p0.json","11.19","true","f0rnvu7h07x","","2960","https://mcdermottlab.mit.edu/mturk_stimuli/bjmedina/nhs-region-n_80/mem_stim_68.wav","0","main","","","false","mem_stim_68.wav","false","-1","","1","correct_rejection"
"","","","","","html-keyboard-response","197","615194","0.0-10.0-1.83","https://mcdermottlab.mit.edu/mturk_stimuli/bjmedina/nhs-region-n_80/sequences/isi_16/len120/seq015_len120_s70_isi-1p0_0p0_16p0.json","11.19","true","f0rnvu7h07x","","null","<span style=""font-size: 40px"">+</span>","null","","","","","","","","","",""
"","","","","","audio-button-response","198","618034","0.0-10.0-2.83","https://mcdermottlab.mit.edu/mturk_stimuli/bjmedina/nhs-region-n_80/sequences/isi_16/len120/seq015_len120_s70_isi-1p0_0p0_16p0.json","11.19","true","f0rnvu7h07x","","2592","https://mcdermottlab.mit.edu/mturk_stimuli/bjmedina/nhs-region-n_80/mem_stim_7.wav","0","main","","","false","mem_stim_7.wav","false","-1","","1","correct_rejection"
"","","","","","html-keyboard-response","199","618094","0.0-10.0-1.84","https://mcdermottlab.mit.edu/mturk_stimuli/bjmedina/nhs-region-n_80/sequences/isi_16/len120/seq015_len120_s70_isi-1p0_0p0_16p0.json","11.19","true","f0rnvu7h07x","","null","<span style=""font-size: 40px"">+</span>","null","","","","","","","","","",""
"","","","","","audio-button-response","200","621284","0.0-10.0-2.84","https://mcdermottlab.mit.edu/mturk_stimuli/bjmedina/nhs-region-n_80/sequences/isi_16/len120/seq015_len120_s70_isi-1p0_0p0_16p0.json","11.19","true","f0rnvu7h07x","","2955","https://mcdermottlab.mit.edu/mturk_stimuli/bjmedina/nhs-region-n_80/mem_stim_79.wav","0","main","","","false","mem_stim_79.wav","false","-1","","1","correct_rejection"
"","","","","","html-keyboard-response","201","621345","0.0-10.0-1.85","https://mcdermottlab.mit.edu/mturk_stimuli/bjmedina/nhs-region-n_80/sequences/isi_16/len120/seq015_len120_s70_isi-1p0_0p0_16p0.json","11.19","true","f0rnvu7h07x","","null","<span style=""font-size: 40px"">+</span>","null","","","","","","","","","",""
"","","","","","audio-button-response","202","623751","0.0-10.0-2.85","https://mcdermottlab.mit.edu/mturk_stimuli/bjmedina/nhs-region-n_80/sequences/isi_16/len120/seq015_len120_s70_isi-1p0_0p0_16p0.json","11.19","true","f0rnvu7h07x","","2165","https://mcdermottlab.mit.edu/mturk_stimuli/bjmedina/nhs-region-n_80/mem_stim_63.wav","0","main","","","false","mem_stim_63.wav","false","-1","","1","correct_rejection"
"","","","","","html-keyboard-response","203","623811","0.0-10.0-1.86","https://mcdermottlab.mit.edu/mturk_stimuli/bjmedina/nhs-region-n_80/sequences/isi_16/len120/seq015_len120_s70_isi-1p0_0p0_16p0.json","11.19","true","f0rnvu7h07x","","null","<span style=""font-size: 40px"">+</span>","null","","","","","","","","","",""
"","","","","","audio-button-response","204","626552","0.0-10.0-2.86","https://mcdermottlab.mit.edu/mturk_stimuli/bjmedina/nhs-region-n_80/sequences/isi_16/len120/seq015_len120_s70_isi-1p0_0p0_16p0.json","11.19","true","f0rnvu7h07x","","2736","https://mcdermottlab.mit.edu/mturk_stimuli/bjmedina/nhs-region-n_80/mem_stim_54.wav","0","main","","","true","mem_stim_54.wav","false","16","","0","miss"
"","","","","","html-keyboard-response","205","626611","0.0-10.0-1.87","https://mcdermottlab.mit.edu/mturk_stimuli/bjmedina/nhs-region-n_80/sequences/isi_16/len120/seq015_len120_s70_isi-1p0_0p0_16p0.json","11.19","true","f0rnvu7h07x","","null","<span style=""font-size: 40px"">+</span>","null","","","","","","","","","",""
"","","","","","audio-button-response","206","630201","0.0-10.0-2.87","https://mcdermottlab.mit.edu/mturk_stimuli/bjmedina/nhs-region-n_80/sequences/isi_16/len120/seq015_len120_s70_isi-1p0_0p0_16p0.json","11.19","true","f0rnvu7h07x","","3328","https://mcdermottlab.mit.edu/mturk_stimuli/bjmedina/nhs-region-n_80/mem_stim_31.wav","0","main","","","false","mem_stim_31.wav","false","-1","","1","correct_rejection"
"","","","","","html-keyboard-response","207","630259","0.0-10.0-1.88","https://mcdermottlab.mit.edu/mturk_stimuli/bjmedina/nhs-region-n_80/sequences/isi_16/len120/seq015_len120_s70_isi-1p0_0p0_16p0.json","11.19","true","f0rnvu7h07x","","null","<span style=""font-size: 40px"">+</span>","null","","","","","","","","","",""
"","","","","","audio-button-response","208","633301","0.0-10.0-2.88","https://mcdermottlab.mit.edu/mturk_stimuli/bjmedina/nhs-region-n_80/sequences/isi_16/len120/seq015_len120_s70_isi-1p0_0p0_16p0.json","11.19","true","f0rnvu7h07x","","2795","https://mcdermottlab.mit.edu/mturk_stimuli/bjmedina/nhs-region-n_80/mem_stim_21.wav","0","main","","","false","mem_stim_21.wav","false","-1","","1","correct_rejection"
"","","","","","html-keyboard-response","209","633360","0.0-10.0-1.89","https://mcdermottlab.mit.edu/mturk_stimuli/bjmedina/nhs-region-n_80/sequences/isi_16/len120/seq015_len120_s70_isi-1p0_0p0_16p0.json","11.19","true","f0rnvu7h07x","","null","<span style=""font-size: 40px"">+</span>","null","","","","","","","","","",""
"","","","","","audio-button-response","210","636184","0.0-10.0-2.89","https://mcdermottlab.mit.edu/mturk_stimuli/bjmedina/nhs-region-n_80/sequences/isi_16/len120/seq015_len120_s70_isi-1p0_0p0_16p0.json","11.19","true","f0rnvu7h07x","","2821","https://mcdermottlab.mit.edu/mturk_stimuli/bjmedina/nhs-region-n_80/mem_stim_21.wav","3","main","","","true","mem_stim_21.wav","true","0","","0","miss"
"","","","","","html-keyboard-response","211","636244","0.0-10.0-1.90","https://mcdermottlab.mit.edu/mturk_stimuli/bjmedina/nhs-region-n_80/sequences/isi_16/len120/seq015_len120_s70_isi-1p0_0p0_16p0.json","11.19","true","f0rnvu7h07x","","null","<span style=""font-size: 40px"">+</span>","null","","","","","","","","","",""
"","","","","","audio-button-response","212","639050","0.0-10.0-2.90","https://mcdermottlab.mit.edu/mturk_stimuli/bjmedina/nhs-region-n_80/sequences/isi_16/len120/seq015_len120_s70_isi-1p0_0p0_16p0.json","11.19","true","f0rnvu7h07x","","2544","https://mcdermottlab.mit.edu/mturk_stimuli/bjmedina/nhs-region-n_80/mem_stim_40.wav","0","main","","","false","mem_stim_40.wav","false","-1","","1","correct_rejection"
"","","","","","html-keyboard-response","213","639111","0.0-10.0-1.91","https://mcdermottlab.mit.edu/mturk_stimuli/bjmedina/nhs-region-n_80/sequences/isi_16/len120/seq015_len120_s70_isi-1p0_0p0_16p0.json","11.19","true","f0rnvu7h07x","","null","<span style=""font-size: 40px"">+</span>","null","","","","","","","","","",""
"","","","","","audio-button-response","214","645184","0.0-10.0-2.91","https://mcdermottlab.mit.edu/mturk_stimuli/bjmedina/nhs-region-n_80/sequences/isi_16/len120/seq015_len120_s70_isi-1p0_0p0_16p0.json","11.19","true","f0rnvu7h07x","","5819","https://mcdermottlab.mit.edu/mturk_stimuli/bjmedina/nhs-region-n_80/mem_stim_3.wav","0","main","","","false","mem_stim_3.wav","false","-1","","1","correct_rejection"
"","","","","","html-keyboard-response","215","645245","0.0-10.0-1.92","https://mcdermottlab.mit.edu/mturk_stimuli/bjmedina/nhs-region-n_80/sequences/isi_16/len120/seq015_len120_s70_isi-1p0_0p0_16p0.json","11.19","true","f0rnvu7h07x","","null","<span style=""font-size: 40px"">+</span>","null","","","","","","","","","",""
"","","","","","audio-button-response","216","648551","0.0-10.0-2.92","https://mcdermottlab.mit.edu/mturk_stimuli/bjmedina/nhs-region-n_80/sequences/isi_16/len120/seq015_len120_s70_isi-1p0_0p0_16p0.json","11.19","true","f0rnvu7h07x","","3301","https://mcdermottlab.mit.edu/mturk_stimuli/bjmedina/nhs-region-n_80/mem_stim_72.wav","2","main","","","true","mem_stim_72.wav","false","16","","0","miss"
"","","","","","html-keyboard-response","217","648613","0.0-10.0-1.93","https://mcdermottlab.mit.edu/mturk_stimuli/bjmedina/nhs-region-n_80/sequences/isi_16/len120/seq015_len120_s70_isi-1p0_0p0_16p0.json","11.19","true","f0rnvu7h07x","","null","<span style=""font-size: 40px"">+</span>","null","","","","","","","","","",""
"","","","","","audio-button-response","218","651201","0.0-10.0-2.93","https://mcdermottlab.mit.edu/mturk_stimuli/bjmedina/nhs-region-n_80/sequences/isi_16/len120/seq015_len120_s70_isi-1p0_0p0_16p0.json","11.19","true","f0rnvu7h07x","","2587","https://mcdermottlab.mit.edu/mturk_stimuli/bjmedina/nhs-region-n_80/mem_stim_59.wav","2","main","","","true","mem_stim_59.wav","false","16","","0","miss"
"","","","","","html-keyboard-response","219","651262","0.0-10.0-1.94","https://mcdermottlab.mit.edu/mturk_stimuli/bjmedina/nhs-region-n_80/sequences/isi_16/len120/seq015_len120_s70_isi-1p0_0p0_16p0.json","11.19","true","f0rnvu7h07x","","null","<span style=""font-size: 40px"">+</span>","null","","","","","","","","","",""
"","","","","","audio-button-response","220","654484","0.0-10.0-2.94","https://mcdermottlab.mit.edu/mturk_stimuli/bjmedina/nhs-region-n_80/sequences/isi_16/len120/seq015_len120_s70_isi-1p0_0p0_16p0.json","11.19","true","f0rnvu7h07x","","2960","https://mcdermottlab.mit.edu/mturk_stimuli/bjmedina/nhs-region-n_80/mem_stim_41.wav","1","main","","","false","mem_stim_41.wav","false","-1","","0","false_alarm"
"","","","","","html-keyboard-response","221","654543","0.0-10.0-1.95","https://mcdermottlab.mit.edu/mturk_stimuli/bjmedina/nhs-region-n_80/sequences/isi_16/len120/seq015_len120_s70_isi-1p0_0p0_16p0.json","11.19","true","f0rnvu7h07x","","null","<span style=""font-size: 40px"">+</span>","null","","","","","","","","","",""
"","","","","","audio-button-response","222","657400","0.0-10.0-2.95","https://mcdermottlab.mit.edu/mturk_stimuli/bjmedina/nhs-region-n_80/sequences/isi_16/len120/seq015_len120_s70_isi-1p0_0p0_16p0.json","11.19","true","f0rnvu7h07x","","2613","https://mcdermottlab.mit.edu/mturk_stimuli/bjmedina/nhs-region-n_80/mem_stim_22.wav","0","main","","","false","mem_stim_22.wav","false","-1","","1","correct_rejection"
"","","","","","html-keyboard-response","223","657461","0.0-10.0-1.96","https://mcdermottlab.mit.edu/mturk_stimuli/bjmedina/nhs-region-n_80/sequences/isi_16/len120/seq015_len120_s70_isi-1p0_0p0_16p0.json","11.19","true","f0rnvu7h07x","","null","<span style=""font-size: 40px"">+</span>","null","","","","","","","","","",""
"","","","","","audio-button-response","224","660251","0.0-10.0-2.96","https://mcdermottlab.mit.edu/mturk_stimuli/bjmedina/nhs-region-n_80/sequences/isi_16/len120/seq015_len120_s70_isi-1p0_0p0_16p0.json","11.19","true","f0rnvu7h07x","","2789","https://mcdermottlab.mit.edu/mturk_stimuli/bjmedina/nhs-region-n_80/mem_stim_77.wav","0","main","","","true","mem_stim_77.wav","false","16","","0","miss"
"","","","","","html-keyboard-response","225","660312","0.0-10.0-1.97","https://mcdermottlab.mit.edu/mturk_stimuli/bjmedina/nhs-region-n_80/sequences/isi_16/len120/seq015_len120_s70_isi-1p0_0p0_16p0.json","11.19","true","f0rnvu7h07x","","null","<span style=""font-size: 40px"">+</span>","null","","","","","","","","","",""
"","","","","","audio-button-response","226","667401","0.0-10.0-2.97","https://mcdermottlab.mit.edu/mturk_stimuli/bjmedina/nhs-region-n_80/sequences/isi_16/len120/seq015_len120_s70_isi-1p0_0p0_16p0.json","11.19","true","f0rnvu7h07x","","6795","https://mcdermottlab.mit.edu/mturk_stimuli/bjmedina/nhs-region-n_80/mem_stim_38.wav","0","main","","","false","mem_stim_38.wav","false","-1","","1","correct_rejection"
"","","","","","html-keyboard-response","227","667461","0.0-10.0-1.98","https://mcdermottlab.mit.edu/mturk_stimuli/bjmedina/nhs-region-n_80/sequences/isi_16/len120/seq015_len120_s70_isi-1p0_0p0_16p0.json","11.19","true","f0rnvu7h07x","","null","<span style=""font-size: 40px"">+</span>","null","","","","","","","","","",""
"","","","","","audio-button-response","228","670468","0.0-10.0-2.98","https://mcdermottlab.mit.edu/mturk_stimuli/bjmedina/nhs-region-n_80/sequences/isi_16/len120/seq015_len120_s70_isi-1p0_0p0_16p0.json","11.19","true","f0rnvu7h07x","","2651","https://mcdermottlab.mit.edu/mturk_stimuli/bjmedina/nhs-region-n_80/mem_stim_24.wav","0","main","","","false","mem_stim_24.wav","false","-1","","1","correct_rejection"
"","","","","","html-keyboard-response","229","670528","0.0-10.0-1.99","https://mcdermottlab.mit.edu/mturk_stimuli/bjmedina/nhs-region-n_80/sequences/isi_16/len120/seq015_len120_s70_isi-1p0_0p0_16p0.json","11.19","true","f0rnvu7h07x","","null","<span style=""font-size: 40px"">+</span>","null","","","","","","","","","",""
"","","","","","audio-button-response","230","674634","0.0-10.0-2.99","https://mcdermottlab.mit.edu/mturk_stimuli/bjmedina/nhs-region-n_80/sequences/isi_16/len120/seq015_len120_s70_isi-1p0_0p0_16p0.json","11.19","true","f0rnvu7h07x","","4107","https://mcdermottlab.mit.edu/mturk_stimuli/bjmedina/nhs-region-n_80/mem_stim_68.wav","2","main","","","true","mem_stim_68.wav","false","16","","0","miss"
"","","","","","html-keyboard-response","231","674695","0.0-10.0-1.100","https://mcdermottlab.mit.edu/mturk_stimuli/bjmedina/nhs-region-n_80/sequences/isi_16/len120/seq015_len120_s70_isi-1p0_0p0_16p0.json","11.19","true","f0rnvu7h07x","","null","<span style=""font-size: 40px"">+</span>","null","","","","","","","","","",""
"","","","","","audio-button-response","232","682467","0.0-10.0-2.100","https://mcdermottlab.mit.edu/mturk_stimuli/bjmedina/nhs-region-n_80/sequences/isi_16/len120/seq015_len120_s70_isi-1p0_0p0_16p0.json","11.19","true","f0rnvu7h07x","","7771","https://mcdermottlab.mit.edu/mturk_stimuli/bjmedina/nhs-region-n_80/mem_stim_7.wav","0","main","","","true","mem_stim_7.wav","false","16","","0","miss"
"","","","","","html-keyboard-response","233","682527","0.0-10.0-1.101","https://mcdermottlab.mit.edu/mturk_stimuli/bjmedina/nhs-region-n_80/sequences/isi_16/len120/seq015_len120_s70_isi-1p0_0p0_16p0.json","11.19","true","f0rnvu7h07x","","null","<span style=""font-size: 40px"">+</span>","null","","","","","","","","","",""
"","","","","","audio-button-response","234","686868","0.0-10.0-2.101","https://mcdermottlab.mit.edu/mturk_stimuli/bjmedina/nhs-region-n_80/sequences/isi_16/len120/seq015_len120_s70_isi-1p0_0p0_16p0.json","11.19","true","f0rnvu7h07x","","3979","https://mcdermottlab.mit.edu/mturk_stimuli/bjmedina/nhs-region-n_80/mem_stim_25.wav","2","main","","","false","mem_stim_25.wav","false","-1","","1","correct_rejection"
"","","","","","html-keyboard-response","235","686929","0.0-10.0-1.102","https://mcdermottlab.mit.edu/mturk_stimuli/bjmedina/nhs-region-n_80/sequences/isi_16/len120/seq015_len120_s70_isi-1p0_0p0_16p0.json","11.19","true","f0rnvu7h07x","","null","<span style=""font-size: 40px"">+</span>","null","","","","","","","","","",""
"","","","","","audio-button-response","236","689851","0.0-10.0-2.102","https://mcdermottlab.mit.edu/mturk_stimuli/bjmedina/nhs-region-n_80/sequences/isi_16/len120/seq015_len120_s70_isi-1p0_0p0_16p0.json","11.19","true","f0rnvu7h07x","","2688","https://mcdermottlab.mit.edu/mturk_stimuli/bjmedina/nhs-region-n_80/mem_stim_66.wav","0","main","","","false","mem_stim_66.wav","false","-1","","1","correct_rejection"
"","","","","","html-keyboard-response","237","689912","0.0-10.0-1.103","https://mcdermottlab.mit.edu/mturk_stimuli/bjmedina/nhs-region-n_80/sequences/isi_16/len120/seq015_len120_s70_isi-1p0_0p0_16p0.json","11.19","true","f0rnvu7h07x","","null","<span style=""font-size: 40px"">+</span>","null","","","","","","","","","",""
"","","","","","audio-button-response","238","693102","0.0-10.0-2.103","https://mcdermottlab.mit.edu/mturk_stimuli/bjmedina/nhs-region-n_80/sequences/isi_16/len120/seq015_len120_s70_isi-1p0_0p0_16p0.json","11.19","true","f0rnvu7h07x","","2955","https://mcdermottlab.mit.edu/mturk_stimuli/bjmedina/nhs-region-n_80/mem_stim_39.wav","0","main","","","false","mem_stim_39.wav","false","-1","","1","correct_rejection"
"","","","","","html-keyboard-response","239","693161","0.0-10.0-1.104","https://mcdermottlab.mit.edu/mturk_stimuli/bjmedina/nhs-region-n_80/sequences/isi_16/len120/seq015_len120_s70_isi-1p0_0p0_16p0.json","11.19","true","f0rnvu7h07x","","null","<span style=""font-size: 40px"">+</span>","null","","","","","","","","","",""
"","","","","","audio-button-response","240","700917","0.0-10.0-2.104","https://mcdermottlab.mit.edu/mturk_stimuli/bjmedina/nhs-region-n_80/sequences/isi_16/len120/seq015_len120_s70_isi-1p0_0p0_16p0.json","11.19","true","f0rnvu7h07x","","7755","https://mcdermottlab.mit.edu/mturk_stimuli/bjmedina/nhs-region-n_80/mem_stim_31.wav","0","main","","","true","mem_stim_31.wav","false","16","","0","miss"
"","","","","","html-keyboard-response","241","700978","0.0-10.0-1.105","https://mcdermottlab.mit.edu/mturk_stimuli/bjmedina/nhs-region-n_80/sequences/isi_16/len120/seq015_len120_s70_isi-1p0_0p0_16p0.json","11.19","true","f0rnvu7h07x","","null","<span style=""font-size: 40px"">+</span>","null","","","","","","","","","",""
"","","","","","audio-button-response","242","703900","0.0-10.0-2.105","https://mcdermottlab.mit.edu/mturk_stimuli/bjmedina/nhs-region-n_80/sequences/isi_16/len120/seq015_len120_s70_isi-1p0_0p0_16p0.json","11.19","true","f0rnvu7h07x","","2539","https://mcdermottlab.mit.edu/mturk_stimuli/bjmedina/nhs-region-n_80/mem_stim_65.wav","0","main","","","false","mem_stim_65.wav","false","-1","","1","correct_rejection"
"","","","","","html-keyboard-response","243","703959","0.0-10.0-1.106","https://mcdermottlab.mit.edu/mturk_stimuli/bjmedina/nhs-region-n_80/sequences/isi_16/len120/seq015_len120_s70_isi-1p0_0p0_16p0.json","11.19","true","f0rnvu7h07x","","null","<span style=""font-size: 40px"">+</span>","null","","","","","","","","","",""
"","","","","","audio-button-response","244","708834","0.0-10.0-2.106","https://mcdermottlab.mit.edu/mturk_stimuli/bjmedina/nhs-region-n_80/sequences/isi_16/len120/seq015_len120_s70_isi-1p0_0p0_16p0.json","11.19","true","f0rnvu7h07x","","4613","https://mcdermottlab.mit.edu/mturk_stimuli/bjmedina/nhs-region-n_80/mem_stim_58.wav","0","main","","","false","mem_stim_58.wav","false","-1","","1","correct_rejection"
"","","","","","html-keyboard-response","245","708894","0.0-10.0-1.107","https://mcdermottlab.mit.edu/mturk_stimuli/bjmedina/nhs-region-n_80/sequences/isi_16/len120/seq015_len120_s70_isi-1p0_0p0_16p0.json","11.19","true","f0rnvu7h07x","","null","<span style=""font-size: 40px"">+</span>","null","","","","","","","","","",""
"","","","","","audio-button-response","246","719384","0.0-10.0-2.107","https://mcdermottlab.mit.edu/mturk_stimuli/bjmedina/nhs-region-n_80/sequences/isi_16/len120/seq015_len120_s70_isi-1p0_0p0_16p0.json","11.19","true","f0rnvu7h07x","","10256","https://mcdermottlab.mit.edu/mturk_stimuli/bjmedina/nhs-region-n_80/mem_stim_35.wav","0","main","","","false","mem_stim_35.wav","false","-1","","1","correct_rejection"
"","","","","","html-keyboard-response","247","719445","0.0-10.0-1.108","https://mcdermottlab.mit.edu/mturk_stimuli/bjmedina/nhs-region-n_80/sequences/isi_16/len120/seq015_len120_s70_isi-1p0_0p0_16p0.json","11.19","true","f0rnvu7h07x","","null","<span style=""font-size: 40px"">+</span>","null","","","","","","","","","",""
"","","","","","audio-button-response","248","721968","0.0-10.0-2.108","https://mcdermottlab.mit.edu/mturk_stimuli/bjmedina/nhs-region-n_80/sequences/isi_16/len120/seq015_len120_s70_isi-1p0_0p0_16p0.json","11.19","true","f0rnvu7h07x","","2523","https://mcdermottlab.mit.edu/mturk_stimuli/bjmedina/nhs-region-n_80/mem_stim_3.wav","0","main","","","true","mem_stim_3.wav","false","16","","0","miss"
"","","","","","html-keyboard-response","249","722029","0.0-10.0-1.109","https://mcdermottlab.mit.edu/mturk_stimuli/bjmedina/nhs-region-n_80/sequences/isi_16/len120/seq015_len120_s70_isi-1p0_0p0_16p0.json","11.19","true","f0rnvu7h07x","","null","<span style=""font-size: 40px"">+</span>","null","","","","","","","","","",""
"","","","","","audio-button-response","250","725185","0.0-10.0-2.109","https://mcdermottlab.mit.edu/mturk_stimuli/bjmedina/nhs-region-n_80/sequences/isi_16/len120/seq015_len120_s70_isi-1p0_0p0_16p0.json","11.19","true","f0rnvu7h07x","","2843","https://mcdermottlab.mit.edu/mturk_stimuli/bjmedina/nhs-region-n_80/mem_stim_69.wav","0","main","","","false","mem_stim_69.wav","false","-1","","1","correct_rejection"
"","","","","","html-keyboard-response","251","725245","0.0-10.0-1.110","https://mcdermottlab.mit.edu/mturk_stimuli/bjmedina/nhs-region-n_80/sequences/isi_16/len120/seq015_len120_s70_isi-1p0_0p0_16p0.json","11.19","true","f0rnvu7h07x","","null","<span style=""font-size: 40px"">+</span>","null","","","","","","","","","",""
"","","","","","audio-button-response","252","728484","0.0-10.0-2.110","https://mcdermottlab.mit.edu/mturk_stimuli/bjmedina/nhs-region-n_80/sequences/isi_16/len120/seq015_len120_s70_isi-1p0_0p0_16p0.json","11.19","true","f0rnvu7h07x","","3003","https://mcdermottlab.mit.edu/mturk_stimuli/bjmedina/nhs-region-n_80/mem_stim_17.wav","0","main","","","false","mem_stim_17.wav","false","-1","","1","correct_rejection"
"","","","","","html-keyboard-response","253","728546","0.0-10.0-1.111","https://mcdermottlab.mit.edu/mturk_stimuli/bjmedina/nhs-region-n_80/sequences/isi_16/len120/seq015_len120_s70_isi-1p0_0p0_16p0.json","11.19","true","f0rnvu7h07x","","null","<span style=""font-size: 40px"">+</span>","null","","","","","","","","","",""
"","","","","","audio-button-response","254","731401","0.0-10.0-2.111","https://mcdermottlab.mit.edu/mturk_stimuli/bjmedina/nhs-region-n_80/sequences/isi_16/len120/seq015_len120_s70_isi-1p0_0p0_16p0.json","11.19","true","f0rnvu7h07x","","2629","https://mcdermottlab.mit.edu/mturk_stimuli/bjmedina/nhs-region-n_80/mem_stim_61.wav","0","main","","","false","mem_stim_61.wav","false","-1","","1","correct_rejection"
"","","","","","html-keyboard-response","255","731462","0.0-10.0-1.112","https://mcdermottlab.mit.edu/mturk_stimuli/bjmedina/nhs-region-n_80/sequences/isi_16/len120/seq015_len120_s70_isi-1p0_0p0_16p0.json","11.19","true","f0rnvu7h07x","","null","<span style=""font-size: 40px"">+</span>","null","","","","","","","","","",""
"","","","","","audio-button-response","256","735134","0.0-10.0-2.112","https://mcdermottlab.mit.edu/mturk_stimuli/bjmedina/nhs-region-n_80/sequences/isi_16/len120/seq015_len120_s70_isi-1p0_0p0_16p0.json","11.19","true","f0rnvu7h07x","","3675","https://mcdermottlab.mit.edu/mturk_stimuli/bjmedina/nhs-region-n_80/mem_stim_22.wav","0","main","","","true","mem_stim_22.wav","false","16","","0","miss"
"","","","","","html-keyboard-response","257","735196","0.0-10.0-1.113","https://mcdermottlab.mit.edu/mturk_stimuli/bjmedina/nhs-region-n_80/sequences/isi_16/len120/seq015_len120_s70_isi-1p0_0p0_16p0.json","11.19","true","f0rnvu7h07x","","null","<span style=""font-size: 40px"">+</span>","null","","","","","","","","","",""
"","","","","","audio-button-response","258","738018","0.0-10.0-2.113","https://mcdermottlab.mit.edu/mturk_stimuli/bjmedina/nhs-region-n_80/sequences/isi_16/len120/seq015_len120_s70_isi-1p0_0p0_16p0.json","11.19","true","f0rnvu7h07x","","2555","https://mcdermottlab.mit.edu/mturk_stimuli/bjmedina/nhs-region-n_80/mem_stim_46.wav","0","main","","","false","mem_stim_46.wav","false","-1","","1","correct_rejection"
"","","","","","html-keyboard-response","259","738080","0.0-10.0-1.114","https://mcdermottlab.mit.edu/mturk_stimuli/bjmedina/nhs-region-n_80/sequences/isi_16/len120/seq015_len120_s70_isi-1p0_0p0_16p0.json","11.19","true","f0rnvu7h07x","","null","<span style=""font-size: 40px"">+</span>","null","","","","","","","","","",""
"","","","","","audio-button-response","260","741000","0.0-10.0-2.114","https://mcdermottlab.mit.edu/mturk_stimuli/bjmedina/nhs-region-n_80/sequences/isi_16/len120/seq015_len120_s70_isi-1p0_0p0_16p0.json","11.19","true","f0rnvu7h07x","","2917","https://mcdermottlab.mit.edu/mturk_stimuli/bjmedina/nhs-region-n_80/mem_stim_38.wav","0","main","","","true","mem_stim_38.wav","false","16","","0","miss"
"","","","","","html-keyboard-response","261","741063","0.0-10.0-1.115","https://mcdermottlab.mit.edu/mturk_stimuli/bjmedina/nhs-region-n_80/sequences/isi_16/len120/seq015_len120_s70_isi-1p0_0p0_16p0.json","11.19","true","f0rnvu7h07x","","null","<span style=""font-size: 40px"">+</span>","null","","","","","","","","","",""
"","","","","","audio-button-response","262","761168","0.0-10.0-2.115","https://mcdermottlab.mit.edu/mturk_stimuli/bjmedina/nhs-region-n_80/sequences/isi_16/len120/seq015_len120_s70_isi-1p0_0p0_16p0.json","11.19","true","f0rnvu7h07x","","19861","https://mcdermottlab.mit.edu/mturk_stimuli/bjmedina/nhs-region-n_80/mem_stim_51.wav","0","main","","","false","mem_stim_51.wav","false","-1","","1","correct_rejection"
"","","","","","html-keyboard-response","263","761230","0.0-10.0-1.116","https://mcdermottlab.mit.edu/mturk_stimuli/bjmedina/nhs-region-n_80/sequences/isi_16/len120/seq015_len120_s70_isi-1p0_0p0_16p0.json","11.19","true","f0rnvu7h07x","","null","<span style=""font-size: 40px"">+</span>","null","","","","","","","","","",""
"","","","","","audio-button-response","264","764250","0.0-10.0-2.116","https://mcdermottlab.mit.edu/mturk_stimuli/bjmedina/nhs-region-n_80/sequences/isi_16/len120/seq015_len120_s70_isi-1p0_0p0_16p0.json","11.19","true","f0rnvu7h07x","","2629","https://mcdermottlab.mit.edu/mturk_stimuli/bjmedina/nhs-region-n_80/mem_stim_44.wav","0","main","","","false","mem_stim_44.wav","false","-1","","1","correct_rejection"
"","","","","","html-keyboard-response","265","764312","0.0-10.0-1.117","https://mcdermottlab.mit.edu/mturk_stimuli/bjmedina/nhs-region-n_80/sequences/isi_16/len120/seq015_len120_s70_isi-1p0_0p0_16p0.json","11.19","true","f0rnvu7h07x","","null","<span style=""font-size: 40px"">+</span>","null","","","","","","","","","",""
"","","","","","audio-button-response","266","767251","0.0-10.0-2.117","https://mcdermottlab.mit.edu/mturk_stimuli/bjmedina/nhs-region-n_80/sequences/isi_16/len120/seq015_len120_s70_isi-1p0_0p0_16p0.json","11.19","true","f0rnvu7h07x","","2933","https://mcdermottlab.mit.edu/mturk_stimuli/bjmedina/nhs-region-n_80/mem_stim_44.wav","3","main","","","true","mem_stim_44.wav","true","0","","0","miss"
"","","","","","html-keyboard-response","267","767314","0.0-10.0-1.118","https://mcdermottlab.mit.edu/mturk_stimuli/bjmedina/nhs-region-n_80/sequences/isi_16/len120/seq015_len120_s70_isi-1p0_0p0_16p0.json","11.19","true","f0rnvu7h07x","","null","<span style=""font-size: 40px"">+</span>","null","","","","","","","","","",""
"","","","","","audio-button-response","268","770884","0.0-10.0-2.118","https://mcdermottlab.mit.edu/mturk_stimuli/bjmedina/nhs-region-n_80/sequences/isi_16/len120/seq015_len120_s70_isi-1p0_0p0_16p0.json","11.19","true","f0rnvu7h07x","","3568","https://mcdermottlab.mit.edu/mturk_stimuli/bjmedina/nhs-region-n_80/mem_stim_25.wav","1","main","","","true","mem_stim_25.wav","false","16","","1","hit"
"","","","","","html-keyboard-response","269","770946","0.0-10.0-1.119","https://mcdermottlab.mit.edu/mturk_stimuli/bjmedina/nhs-region-n_80/sequences/isi_16/len120/seq015_len120_s70_isi-1p0_0p0_16p0.json","11.19","true","f0rnvu7h07x","","null","<span style=""font-size: 40px"">+</span>","null","","","","","","","","","",""
"","","","","","audio-button-response","270","773667","0.0-10.0-2.119","https://mcdermottlab.mit.edu/mturk_stimuli/bjmedina/nhs-region-n_80/sequences/isi_16/len120/seq015_len120_s70_isi-1p0_0p0_16p0.json","11.19","true","f0rnvu7h07x","","2720","https://mcdermottlab.mit.edu/mturk_stimuli/bjmedina/nhs-region-n_80/mem_stim_66.wav","2","main","","","true","mem_stim_66.wav","false","16","","0","miss"
"","","","","","survey-text","271","798652","0.0-11.0","https://mcdermottlab.mit.edu/mturk_stimuli/bjmedina/nhs-region-n_80/sequences/isi_16/len120/seq015_len120_s70_isi-1p0_0p0_16p0.json","11.19","true","f0rnvu7h07x","","24969","","{""Q0"":""Can make it shorter""}","","","","","","","","","",""
