"success","timeout","failed_images","failed_audio","failed_video","trial_type","trial_index","time_elapsed","internal_node_id","sequence_file","pay","passed_hc","completion_code","view_history","rt","stimulus","response","stim_type","hc_answer","correct_hc","repeat","yt_id","catch","isi","type","is_correct","response_type"
"true","false","[]","[]","[]","preload","0","122","0.0-0.0","https://mcdermottlab.mit.edu/mturk_stimuli/bjmedina/nhs-region-n_80/sequences/isi_16/len120/seq061_len120_s70_isi-1p0_0p0_16p0.json","10.66","true","q1n2reqzmnx","","","","","","","","","","","","","",""
"","","","","","instructions","1","7811","0.0-1.0","https://mcdermottlab.mit.edu/mturk_stimuli/bjmedina/nhs-region-n_80/sequences/isi_16/len120/seq061_len120_s70_isi-1p0_0p0_16p0.json","10.66","true","q1n2reqzmnx","[{""page_index"":0,""viewing_time"":7688}]","7689","","","","","","","","","","","",""
"","","","","","instructions","2","25803","0.0-2.0","https://mcdermottlab.mit.edu/mturk_stimuli/bjmedina/nhs-region-n_80/sequences/isi_16/len120/seq061_len120_s70_isi-1p0_0p0_16p0.json","10.66","true","q1n2reqzmnx","[{""page_index"":0,""viewing_time"":17991}]","17991","","","","","","","","","","","",""
"","","","","","audio-button-response","3","40588","0.0-3.0-0.0","https://mcdermottlab.mit.edu/mturk_stimuli/bjmedina/nhs-region-n_80/sequences/isi_16/len120/seq061_len120_s70_isi-1p0_0p0_16p0.json","10.66","true","q1n2reqzmnx","","14672","https://mcdermottlab.mit.edu/bjmedina/experiments/mem_exp_v01/assets/noise_calib_stim.wav","0","","","","","","","","","",""
"","","","","","audio-button-response","4","42572","0.0-3.1-0.1","https://mcdermottlab.mit.edu/mturk_stimuli/bjmedina/nhs-region-n_80/sequences/isi_16/len120/seq061_len120_s70_isi-1p0_0p0_16p0.json","10.66","true","q1n2reqzmnx","","1979","https://mcdermottlab.mit.edu/bjmedina/experiments/mem_exp_v01/assets/noise_calib_stim.wav","0","","","","","","","","","",""
"","","","","","audio-button-response","5","43213","0.0-3.2-0.2","https://mcdermottlab.mit.edu/mturk_stimuli/bjmedina/nhs-region-n_80/sequences/isi_16/len120/seq061_len120_s70_isi-1p0_0p0_16p0.json","10.66","true","q1n2reqzmnx","","640","https://mcdermottlab.mit.edu/bjmedina/experiments/mem_exp_v01/assets/noise_calib_stim.wav","1","","","","","","","","","",""
"","","","","","instructions","6","58924","0.0-4.0","https://mcdermottlab.mit.edu/mturk_stimuli/bjmedina/nhs-region-n_80/sequences/isi_16/len120/seq061_len120_s70_isi-1p0_0p0_16p0.json","10.66","true","q1n2reqzmnx","[{""page_index"":0,""viewing_time"":15710}]","15711","","","","","","","","","","","",""
"","","","","","audio-button-response","7","64252","0.0-5.0-0.0","https://mcdermottlab.mit.edu/mturk_stimuli/bjmedina/nhs-region-n_80/sequences/isi_16/len120/seq061_len120_s70_isi-1p0_0p0_16p0.json","10.66","true","q1n2reqzmnx","","4571","https://mcdermottlab.mit.edu/bjmedina/experiments/mem_exp_v01/assets/antiphase_HC_OSI.wav","1","hc","2","1","","","","","","",""
"","","","","","audio-button-response","8","69213","0.0-5.0-0.1","https://mcdermottlab.mit.edu/mturk_stimuli/bjmedina/nhs-region-n_80/sequences/isi_16/len120/seq061_len120_s70_isi-1p0_0p0_16p0.json","10.66","true","q1n2reqzmnx","","4411","https://mcdermottlab.mit.edu/bjmedina/experiments/mem_exp_v01/assets/antiphase_HC_ISO.wav","1","hc","2","1","","","","","","",""
"","","","","","audio-button-response","9","75068","0.0-5.0-0.2","https://mcdermottlab.mit.edu/mturk_stimuli/bjmedina/nhs-region-n_80/sequences/isi_16/len120/seq061_len120_s70_isi-1p0_0p0_16p0.json","10.66","true","q1n2reqzmnx","","4272","https://mcdermottlab.mit.edu/bjmedina/experiments/mem_exp_v01/assets/antiphase_HC_OIS.wav","2","hc","3","1","","","","","","",""
"","","","","","audio-button-response","10","80140","0.0-5.0-0.3","https://mcdermottlab.mit.edu/mturk_stimuli/bjmedina/nhs-region-n_80/sequences/isi_16/len120/seq061_len120_s70_isi-1p0_0p0_16p0.json","10.66","true","q1n2reqzmnx","","4341","https://mcdermottlab.mit.edu/bjmedina/experiments/mem_exp_v01/assets/antiphase_HC_SIO.wav","0","hc","1","1","","","","","","",""
"","","","","","audio-button-response","11","85070","0.0-5.0-0.4","https://mcdermottlab.mit.edu/mturk_stimuli/bjmedina/nhs-region-n_80/sequences/isi_16/len120/seq061_len120_s70_isi-1p0_0p0_16p0.json","10.66","true","q1n2reqzmnx","","4411","https://mcdermottlab.mit.edu/bjmedina/experiments/mem_exp_v01/assets/antiphase_HC_SOI.wav","0","hc","1","1","","","","","","",""
"","","","","","audio-button-response","12","89893","0.0-5.0-0.5","https://mcdermottlab.mit.edu/mturk_stimuli/bjmedina/nhs-region-n_80/sequences/isi_16/len120/seq061_len120_s70_isi-1p0_0p0_16p0.json","10.66","true","q1n2reqzmnx","","4299","https://mcdermottlab.mit.edu/bjmedina/experiments/mem_exp_v01/assets/antiphase_HC_IOS.wav","2","hc","3","1","","","","","","",""
"","","","","","html-keyboard-response","13","92246","0.0-6.0","https://mcdermottlab.mit.edu/mturk_stimuli/bjmedina/nhs-region-n_80/sequences/isi_16/len120/seq061_len120_s70_isi-1p0_0p0_16p0.json","10.66","true","q1n2reqzmnx","","2352","<h1>You have finished the LOUDNESS task!</h1> <p>Press space to continue</p>"," ","","","","","","","","","",""
"","","","","","instructions","14","144909","0.0-7.0","https://mcdermottlab.mit.edu/mturk_stimuli/bjmedina/nhs-region-n_80/sequences/isi_16/len120/seq061_len120_s70_isi-1p0_0p0_16p0.json","10.66","true","q1n2reqzmnx","[{""page_index"":0,""viewing_time"":3134},{""page_index"":1,""viewing_time"":10664},{""page_index"":2,""viewing_time"":21568},{""page_index"":3,""viewing_time"":17297}]","52663","","","","","","","","","","","",""
"","","","","","html-keyboard-response","15","144961","0.0-8.0-0.0","https://mcdermottlab.mit.edu/mturk_stimuli/bjmedina/nhs-region-n_80/sequences/isi_16/len120/seq061_len120_s70_isi-1p0_0p0_16p0.json","10.66","true","q1n2reqzmnx","","null","<span style=""font-size: 40px"">+</span>","null","fixation","","","","","","","","",""
"","","","","","audio-button-response","16","155134","0.0-8.0-1.0","https://mcdermottlab.mit.edu/mturk_stimuli/bjmedina/nhs-region-n_80/sequences/isi_16/len120/seq061_len120_s70_isi-1p0_0p0_16p0.json","10.66","true","q1n2reqzmnx","","8659","https://mcdermottlab.mit.edu/mturk_stimuli/bjmedina/mem_exp_v05/mem_stim_1023_f32.wav","0","demo","","","0","","","","","",""
"","","","","","html-keyboard-response","17","155204","0.0-8.0-0.1","https://mcdermottlab.mit.edu/mturk_stimuli/bjmedina/nhs-region-n_80/sequences/isi_16/len120/seq061_len120_s70_isi-1p0_0p0_16p0.json","10.66","true","q1n2reqzmnx","","null","<span style=""font-size: 40px"">+</span>","null","fixation","","","","","","","","",""
"","","","","","audio-button-response","18","158917","0.0-8.0-1.1","https://mcdermottlab.mit.edu/mturk_stimuli/bjmedina/nhs-region-n_80/sequences/isi_16/len120/seq061_len120_s70_isi-1p0_0p0_16p0.json","10.66","true","q1n2reqzmnx","","2829","https://mcdermottlab.mit.edu/mturk_stimuli/bjmedina/mem_exp_v05/mem_stim_1022_f32.wav","0","demo","","","0","","","","","",""
"","","","","","html-keyboard-response","19","158986","0.0-8.0-0.2","https://mcdermottlab.mit.edu/mturk_stimuli/bjmedina/nhs-region-n_80/sequences/isi_16/len120/seq061_len120_s70_isi-1p0_0p0_16p0.json","10.66","true","q1n2reqzmnx","","null","<span style=""font-size: 40px"">+</span>","null","fixation","","","","","","","","",""
"","","","","","audio-button-response","20","161366","0.0-8.0-1.2","https://mcdermottlab.mit.edu/mturk_stimuli/bjmedina/nhs-region-n_80/sequences/isi_16/len120/seq061_len120_s70_isi-1p0_0p0_16p0.json","10.66","true","q1n2reqzmnx","","2381","https://mcdermottlab.mit.edu/mturk_stimuli/bjmedina/mem_exp_v05/mem_stim_1022_f32.wav","3","demo","","","1","","","","","",""
"","","","","","html-keyboard-response","21","161419","0.0-8.0-0.3","https://mcdermottlab.mit.edu/mturk_stimuli/bjmedina/nhs-region-n_80/sequences/isi_16/len120/seq061_len120_s70_isi-1p0_0p0_16p0.json","10.66","true","q1n2reqzmnx","","null","<span style=""font-size: 40px"">+</span>","null","fixation","","","","","","","","",""
"","","","","","audio-button-response","22","166087","0.0-8.0-1.3","https://mcdermottlab.mit.edu/mturk_stimuli/bjmedina/nhs-region-n_80/sequences/isi_16/len120/seq061_len120_s70_isi-1p0_0p0_16p0.json","10.66","true","q1n2reqzmnx","","3781","https://mcdermottlab.mit.edu/mturk_stimuli/bjmedina/mem_exp_v05/mem_stim_1021_f32.wav","1","demo","","","0","","","","","",""
"","","","","","html-keyboard-response","23","166153","0.0-8.0-0.4","https://mcdermottlab.mit.edu/mturk_stimuli/bjmedina/nhs-region-n_80/sequences/isi_16/len120/seq061_len120_s70_isi-1p0_0p0_16p0.json","10.66","true","q1n2reqzmnx","","null","<span style=""font-size: 40px"">+</span>","null","fixation","","","","","","","","",""
"","","","","","audio-button-response","24","168661","0.0-8.0-1.4","https://mcdermottlab.mit.edu/mturk_stimuli/bjmedina/nhs-region-n_80/sequences/isi_16/len120/seq061_len120_s70_isi-1p0_0p0_16p0.json","10.66","true","q1n2reqzmnx","","2509","https://mcdermottlab.mit.edu/mturk_stimuli/bjmedina/mem_exp_v05/mem_stim_1023_f32.wav","1","demo","","","1","","","","","",""
"","","","","","html-keyboard-response","25","168718","0.0-8.0-0.5","https://mcdermottlab.mit.edu/mturk_stimuli/bjmedina/nhs-region-n_80/sequences/isi_16/len120/seq061_len120_s70_isi-1p0_0p0_16p0.json","10.66","true","q1n2reqzmnx","","null","<span style=""font-size: 40px"">+</span>","null","fixation","","","","","","","","",""
"","","","","","audio-button-response","26","171880","0.0-8.0-1.5","https://mcdermottlab.mit.edu/mturk_stimuli/bjmedina/nhs-region-n_80/sequences/isi_16/len120/seq061_len120_s70_isi-1p0_0p0_16p0.json","10.66","true","q1n2reqzmnx","","2440","https://mcdermottlab.mit.edu/mturk_stimuli/bjmedina/mem_exp_v05/mem_stim_1020_f32.wav","0","demo","","","0","","","","","",""
"","","","","","html-keyboard-response","27","171937","0.0-8.0-0.6","https://mcdermottlab.mit.edu/mturk_stimuli/bjmedina/nhs-region-n_80/sequences/isi_16/len120/seq061_len120_s70_isi-1p0_0p0_16p0.json","10.66","true","q1n2reqzmnx","","null","<span style=""font-size: 40px"">+</span>","null","fixation","","","","","","","","",""
"","","","","","audio-button-response","28","175190","0.0-8.0-1.6","https://mcdermottlab.mit.edu/mturk_stimuli/bjmedina/nhs-region-n_80/sequences/isi_16/len120/seq061_len120_s70_isi-1p0_0p0_16p0.json","10.66","true","q1n2reqzmnx","","2629","https://mcdermottlab.mit.edu/mturk_stimuli/bjmedina/mem_exp_v05/mem_stim_1019_f32.wav","0","demo","","","0","","","","","",""
"","","","","","html-keyboard-response","29","175254","0.0-8.0-0.7","https://mcdermottlab.mit.edu/mturk_stimuli/bjmedina/nhs-region-n_80/sequences/isi_16/len120/seq061_len120_s70_isi-1p0_0p0_16p0.json","10.66","true","q1n2reqzmnx","","null","<span style=""font-size: 40px"">+</span>","null","fixation","","","","","","","","",""
"","","","","","audio-button-response","30","177632","0.0-8.0-1.7","https://mcdermottlab.mit.edu/mturk_stimuli/bjmedina/nhs-region-n_80/sequences/isi_16/len120/seq061_len120_s70_isi-1p0_0p0_16p0.json","10.66","true","q1n2reqzmnx","","2381","https://mcdermottlab.mit.edu/mturk_stimuli/bjmedina/mem_exp_v05/mem_stim_1021_f32.wav","3","demo","","","1","","","","","",""
"","","","","","html-keyboard-response","31","180441","0.0-9.0","https://mcdermottlab.mit.edu/mturk_stimuli/bjmedina/nhs-region-n_80/sequences/isi_16/len120/seq061_len120_s70_isi-1p0_0p0_16p0.json","10.66","true","q1n2reqzmnx","","2808","<p>You are now ready to start the experiment. Press SPACE when you are ready to start.</p>"," ","","","","","","","","","",""
"","","","","","html-keyboard-response","32","180502","0.0-10.0-1.0","https://mcdermottlab.mit.edu/mturk_stimuli/bjmedina/nhs-region-n_80/sequences/isi_16/len120/seq061_len120_s70_isi-1p0_0p0_16p0.json","10.66","true","q1n2reqzmnx","","null","<span style=""font-size: 40px"">+</span>","null","","","","","","","","","",""
"","","","","","audio-button-response","33","184079","0.0-10.0-2.0","https://mcdermottlab.mit.edu/mturk_stimuli/bjmedina/nhs-region-n_80/sequences/isi_16/len120/seq061_len120_s70_isi-1p0_0p0_16p0.json","10.66","true","q1n2reqzmnx","","2960","https://mcdermottlab.mit.edu/mturk_stimuli/bjmedina/nhs-region-n_80/mem_stim_3.wav","0","main","","","false","mem_stim_3.wav","false","-1","","1","correct_rejection"
"","","","","","html-keyboard-response","34","184138","0.0-10.0-1.1","https://mcdermottlab.mit.edu/mturk_stimuli/bjmedina/nhs-region-n_80/sequences/isi_16/len120/seq061_len120_s70_isi-1p0_0p0_16p0.json","10.66","true","q1n2reqzmnx","","null","<span style=""font-size: 40px"">+</span>","null","","","","","","","","","",""
"","","","","","audio-button-response","35","187240","0.0-10.0-2.1","https://mcdermottlab.mit.edu/mturk_stimuli/bjmedina/nhs-region-n_80/sequences/isi_16/len120/seq061_len120_s70_isi-1p0_0p0_16p0.json","10.66","true","q1n2reqzmnx","","2512","https://mcdermottlab.mit.edu/mturk_stimuli/bjmedina/nhs-region-n_80/mem_stim_39.wav","0","main","","","false","mem_stim_39.wav","false","-1","","1","correct_rejection"
"","","","","","html-keyboard-response","36","187298","0.0-10.0-1.2","https://mcdermottlab.mit.edu/mturk_stimuli/bjmedina/nhs-region-n_80/sequences/isi_16/len120/seq061_len120_s70_isi-1p0_0p0_16p0.json","10.66","true","q1n2reqzmnx","","null","<span style=""font-size: 40px"">+</span>","null","","","","","","","","","",""
"","","","","","audio-button-response","37","189743","0.0-10.0-2.2","https://mcdermottlab.mit.edu/mturk_stimuli/bjmedina/nhs-region-n_80/sequences/isi_16/len120/seq061_len120_s70_isi-1p0_0p0_16p0.json","10.66","true","q1n2reqzmnx","","2451","https://mcdermottlab.mit.edu/mturk_stimuli/bjmedina/nhs-region-n_80/mem_stim_39.wav","3","main","","","true","mem_stim_39.wav","true","0","","0","miss"
"","","","","","html-keyboard-response","38","189804","0.0-10.0-1.3","https://mcdermottlab.mit.edu/mturk_stimuli/bjmedina/nhs-region-n_80/sequences/isi_16/len120/seq061_len120_s70_isi-1p0_0p0_16p0.json","10.66","true","q1n2reqzmnx","","null","<span style=""font-size: 40px"">+</span>","null","","","","","","","","","",""
"","","","","","audio-button-response","39","192830","0.0-10.0-2.3","https://mcdermottlab.mit.edu/mturk_stimuli/bjmedina/nhs-region-n_80/sequences/isi_16/len120/seq061_len120_s70_isi-1p0_0p0_16p0.json","10.66","true","q1n2reqzmnx","","2600","https://mcdermottlab.mit.edu/mturk_stimuli/bjmedina/nhs-region-n_80/mem_stim_18.wav","0","main","","","false","mem_stim_18.wav","false","-1","","1","correct_rejection"
"","","","","","html-keyboard-response","40","192887","0.0-10.0-1.4","https://mcdermottlab.mit.edu/mturk_stimuli/bjmedina/nhs-region-n_80/sequences/isi_16/len120/seq061_len120_s70_isi-1p0_0p0_16p0.json","10.66","true","q1n2reqzmnx","","null","<span style=""font-size: 40px"">+</span>","null","","","","","","","","","",""
"","","","","","audio-button-response","41","196143","0.0-10.0-2.4","https://mcdermottlab.mit.edu/mturk_stimuli/bjmedina/nhs-region-n_80/sequences/isi_16/len120/seq061_len120_s70_isi-1p0_0p0_16p0.json","10.66","true","q1n2reqzmnx","","2851","https://mcdermottlab.mit.edu/mturk_stimuli/bjmedina/nhs-region-n_80/mem_stim_4.wav","0","main","","","false","mem_stim_4.wav","false","-1","","1","correct_rejection"
"","","","","","html-keyboard-response","42","196205","0.0-10.0-1.5","https://mcdermottlab.mit.edu/mturk_stimuli/bjmedina/nhs-region-n_80/sequences/isi_16/len120/seq061_len120_s70_isi-1p0_0p0_16p0.json","10.66","true","q1n2reqzmnx","","null","<span style=""font-size: 40px"">+</span>","null","","","","","","","","","",""
"","","","","","audio-button-response","43","199288","0.0-10.0-2.5","https://mcdermottlab.mit.edu/mturk_stimuli/bjmedina/nhs-region-n_80/sequences/isi_16/len120/seq061_len120_s70_isi-1p0_0p0_16p0.json","10.66","true","q1n2reqzmnx","","2661","https://mcdermottlab.mit.edu/mturk_stimuli/bjmedina/nhs-region-n_80/mem_stim_37.wav","0","main","","","false","mem_stim_37.wav","false","-1","","1","correct_rejection"
"","","","","","html-keyboard-response","44","199355","0.0-10.0-1.6","https://mcdermottlab.mit.edu/mturk_stimuli/bjmedina/nhs-region-n_80/sequences/isi_16/len120/seq061_len120_s70_isi-1p0_0p0_16p0.json","10.66","true","q1n2reqzmnx","","null","<span style=""font-size: 40px"">+</span>","null","","","","","","","","","",""
"","","","","","audio-button-response","45","202784","0.0-10.0-2.6","https://mcdermottlab.mit.edu/mturk_stimuli/bjmedina/nhs-region-n_80/sequences/isi_16/len120/seq061_len120_s70_isi-1p0_0p0_16p0.json","10.66","true","q1n2reqzmnx","","2549","https://mcdermottlab.mit.edu/mturk_stimuli/bjmedina/nhs-region-n_80/mem_stim_58.wav","0","main","","","false","mem_stim_58.wav","false","-1","","1","correct_rejection"
"","","","","","html-keyboard-response","46","202837","0.0-10.0-1.7","https://mcdermottlab.mit.edu/mturk_stimuli/bjmedina/nhs-region-n_80/sequences/isi_16/len120/seq061_len120_s70_isi-1p0_0p0_16p0.json","10.66","true","q1n2reqzmnx","","null","<span style=""font-size: 40px"">+</span>","null","","","","","","","","","",""
"","","","","","audio-button-response","47","206208","0.0-10.0-2.7","https://mcdermottlab.mit.edu/mturk_stimuli/bjmedina/nhs-region-n_80/sequences/isi_16/len120/seq061_len120_s70_isi-1p0_0p0_16p0.json","10.66","true","q1n2reqzmnx","","2931","https://mcdermottlab.mit.edu/mturk_stimuli/bjmedina/nhs-region-n_80/mem_stim_38.wav","0","main","","","false","mem_stim_38.wav","false","-1","","1","correct_rejection"
"","","","","","html-keyboard-response","48","206269","0.0-10.0-1.8","https://mcdermottlab.mit.edu/mturk_stimuli/bjmedina/nhs-region-n_80/sequences/isi_16/len120/seq061_len120_s70_isi-1p0_0p0_16p0.json","10.66","true","q1n2reqzmnx","","null","<span style=""font-size: 40px"">+</span>","null","","","","","","","","","",""
"","","","","","audio-button-response","49","209855","0.0-10.0-2.8","https://mcdermottlab.mit.edu/mturk_stimuli/bjmedina/nhs-region-n_80/sequences/isi_16/len120/seq061_len120_s70_isi-1p0_0p0_16p0.json","10.66","true","q1n2reqzmnx","","2669","https://mcdermottlab.mit.edu/mturk_stimuli/bjmedina/nhs-region-n_80/mem_stim_53.wav","2","main","","","false","mem_stim_53.wav","false","-1","","1","correct_rejection"
"","","","","","html-keyboard-response","50","209918","0.0-10.0-1.9","https://mcdermottlab.mit.edu/mturk_stimuli/bjmedina/nhs-region-n_80/sequences/isi_16/len120/seq061_len120_s70_isi-1p0_0p0_16p0.json","10.66","true","q1n2reqzmnx","","null","<span style=""font-size: 40px"">+</span>","null","","","","","","","","","",""
"","","","","","audio-button-response","51","213224","0.0-10.0-2.9","https://mcdermottlab.mit.edu/mturk_stimuli/bjmedina/nhs-region-n_80/sequences/isi_16/len120/seq061_len120_s70_isi-1p0_0p0_16p0.json","10.66","true","q1n2reqzmnx","","2499","https://mcdermottlab.mit.edu/mturk_stimuli/bjmedina/nhs-region-n_80/mem_stim_42.wav","2","main","","","false","mem_stim_42.wav","false","-1","","1","correct_rejection"
"","","","","","html-keyboard-response","52","213288","0.0-10.0-1.10","https://mcdermottlab.mit.edu/mturk_stimuli/bjmedina/nhs-region-n_80/sequences/isi_16/len120/seq061_len120_s70_isi-1p0_0p0_16p0.json","10.66","true","q1n2reqzmnx","","null","<span style=""font-size: 40px"">+</span>","null","","","","","","","","","",""
"","","","","","audio-button-response","53","216503","0.0-10.0-2.10","https://mcdermottlab.mit.edu/mturk_stimuli/bjmedina/nhs-region-n_80/sequences/isi_16/len120/seq061_len120_s70_isi-1p0_0p0_16p0.json","10.66","true","q1n2reqzmnx","","2451","https://mcdermottlab.mit.edu/mturk_stimuli/bjmedina/nhs-region-n_80/mem_stim_55.wav","3","main","","","false","mem_stim_55.wav","false","-1","","1","correct_rejection"
"","","","","","html-keyboard-response","54","216569","0.0-10.0-1.11","https://mcdermottlab.mit.edu/mturk_stimuli/bjmedina/nhs-region-n_80/sequences/isi_16/len120/seq061_len120_s70_isi-1p0_0p0_16p0.json","10.66","true","q1n2reqzmnx","","null","<span style=""font-size: 40px"">+</span>","null","","","","","","","","","",""
"","","","","","audio-button-response","55","220079","0.0-10.0-2.11","https://mcdermottlab.mit.edu/mturk_stimuli/bjmedina/nhs-region-n_80/sequences/isi_16/len120/seq061_len120_s70_isi-1p0_0p0_16p0.json","10.66","true","q1n2reqzmnx","","2520","https://mcdermottlab.mit.edu/mturk_stimuli/bjmedina/nhs-region-n_80/mem_stim_60.wav","0","main","","","false","mem_stim_60.wav","false","-1","","1","correct_rejection"
"","","","","","html-keyboard-response","56","220138","0.0-10.0-1.12","https://mcdermottlab.mit.edu/mturk_stimuli/bjmedina/nhs-region-n_80/sequences/isi_16/len120/seq061_len120_s70_isi-1p0_0p0_16p0.json","10.66","true","q1n2reqzmnx","","null","<span style=""font-size: 40px"">+</span>","null","","","","","","","","","",""
"","","","","","audio-button-response","57","223770","0.0-10.0-2.12","https://mcdermottlab.mit.edu/mturk_stimuli/bjmedina/nhs-region-n_80/sequences/isi_16/len120/seq061_len120_s70_isi-1p0_0p0_16p0.json","10.66","true","q1n2reqzmnx","","2552","https://mcdermottlab.mit.edu/mturk_stimuli/bjmedina/nhs-region-n_80/mem_stim_73.wav","0","main","","","false","mem_stim_73.wav","false","-1","","1","correct_rejection"
"","","","","","html-keyboard-response","58","223838","0.0-10.0-1.13","https://mcdermottlab.mit.edu/mturk_stimuli/bjmedina/nhs-region-n_80/sequences/isi_16/len120/seq061_len120_s70_isi-1p0_0p0_16p0.json","10.66","true","q1n2reqzmnx","","null","<span style=""font-size: 40px"">+</span>","null","","","","","","","","","",""
"","","","","","audio-button-response","59","227679","0.0-10.0-2.13","https://mcdermottlab.mit.edu/mturk_stimuli/bjmedina/nhs-region-n_80/sequences/isi_16/len120/seq061_len120_s70_isi-1p0_0p0_16p0.json","10.66","true","q1n2reqzmnx","","2840","https://mcdermottlab.mit.edu/mturk_stimuli/bjmedina/nhs-region-n_80/mem_stim_77.wav","0","main","","","false","mem_stim_77.wav","false","-1","","1","correct_rejection"
"","","","","","html-keyboard-response","60","227739","0.0-10.0-1.14","https://mcdermottlab.mit.edu/mturk_stimuli/bjmedina/nhs-region-n_80/sequences/isi_16/len120/seq061_len120_s70_isi-1p0_0p0_16p0.json","10.66","true","q1n2reqzmnx","","null","<span style=""font-size: 40px"">+</span>","null","","","","","","","","","",""
"","","","","","audio-button-response","61","231393","0.0-10.0-2.14","https://mcdermottlab.mit.edu/mturk_stimuli/bjmedina/nhs-region-n_80/sequences/isi_16/len120/seq061_len120_s70_isi-1p0_0p0_16p0.json","10.66","true","q1n2reqzmnx","","2621","https://mcdermottlab.mit.edu/mturk_stimuli/bjmedina/nhs-region-n_80/mem_stim_8.wav","0","main","","","false","mem_stim_8.wav","false","-1","","1","correct_rejection"
"","","","","","html-keyboard-response","62","231455","0.0-10.0-1.15","https://mcdermottlab.mit.edu/mturk_stimuli/bjmedina/nhs-region-n_80/sequences/isi_16/len120/seq061_len120_s70_isi-1p0_0p0_16p0.json","10.66","true","q1n2reqzmnx","","null","<span style=""font-size: 40px"">+</span>","null","","","","","","","","","",""
"","","","","","audio-button-response","63","236152","0.0-10.0-2.15","https://mcdermottlab.mit.edu/mturk_stimuli/bjmedina/nhs-region-n_80/sequences/isi_16/len120/seq061_len120_s70_isi-1p0_0p0_16p0.json","10.66","true","q1n2reqzmnx","","3709","https://mcdermottlab.mit.edu/mturk_stimuli/bjmedina/nhs-region-n_80/mem_stim_71.wav","1","main","","","false","mem_stim_71.wav","false","-1","","0","false_alarm"
"","","","","","html-keyboard-response","64","236219","0.0-10.0-1.16","https://mcdermottlab.mit.edu/mturk_stimuli/bjmedina/nhs-region-n_80/sequences/isi_16/len120/seq061_len120_s70_isi-1p0_0p0_16p0.json","10.66","true","q1n2reqzmnx","","null","<span style=""font-size: 40px"">+</span>","null","","","","","","","","","",""
"","","","","","audio-button-response","65","239704","0.0-10.0-2.16","https://mcdermottlab.mit.edu/mturk_stimuli/bjmedina/nhs-region-n_80/sequences/isi_16/len120/seq061_len120_s70_isi-1p0_0p0_16p0.json","10.66","true","q1n2reqzmnx","","2440","https://mcdermottlab.mit.edu/mturk_stimuli/bjmedina/nhs-region-n_80/mem_stim_75.wav","0","main","","","false","mem_stim_75.wav","false","-1","","1","correct_rejection"
"","","","","","html-keyboard-response","66","239769","0.0-10.0-1.17","https://mcdermottlab.mit.edu/mturk_stimuli/bjmedina/nhs-region-n_80/sequences/isi_16/len120/seq061_len120_s70_isi-1p0_0p0_16p0.json","10.66","true","q1n2reqzmnx","","null","<span style=""font-size: 40px"">+</span>","null","","","","","","","","","",""
"","","","","","audio-button-response","67","243079","0.0-10.0-2.17","https://mcdermottlab.mit.edu/mturk_stimuli/bjmedina/nhs-region-n_80/sequences/isi_16/len120/seq061_len120_s70_isi-1p0_0p0_16p0.json","10.66","true","q1n2reqzmnx","","3309","https://mcdermottlab.mit.edu/mturk_stimuli/bjmedina/nhs-region-n_80/mem_stim_3.wav","2","main","","","true","mem_stim_3.wav","false","16","","0","miss"
"","","","","","html-keyboard-response","68","243139","0.0-10.0-1.18","https://mcdermottlab.mit.edu/mturk_stimuli/bjmedina/nhs-region-n_80/sequences/isi_16/len120/seq061_len120_s70_isi-1p0_0p0_16p0.json","10.66","true","q1n2reqzmnx","","null","<span style=""font-size: 40px"">+</span>","null","","","","","","","","","",""
"","","","","","audio-button-response","69","246474","0.0-10.0-2.18","https://mcdermottlab.mit.edu/mturk_stimuli/bjmedina/nhs-region-n_80/sequences/isi_16/len120/seq061_len120_s70_isi-1p0_0p0_16p0.json","10.66","true","q1n2reqzmnx","","2421","https://mcdermottlab.mit.edu/mturk_stimuli/bjmedina/nhs-region-n_80/mem_stim_27.wav","0","main","","","false","mem_stim_27.wav","false","-1","","1","correct_rejection"
"","","","","","html-keyboard-response","70","246540","0.0-10.0-1.19","https://mcdermottlab.mit.edu/mturk_stimuli/bjmedina/nhs-region-n_80/sequences/isi_16/len120/seq061_len120_s70_isi-1p0_0p0_16p0.json","10.66","true","q1n2reqzmnx","","null","<span style=""font-size: 40px"">+</span>","null","","","","","","","","","",""
"","","","","","audio-button-response","71","249432","0.0-10.0-2.19","https://mcdermottlab.mit.edu/mturk_stimuli/bjmedina/nhs-region-n_80/sequences/isi_16/len120/seq061_len120_s70_isi-1p0_0p0_16p0.json","10.66","true","q1n2reqzmnx","","2480","https://mcdermottlab.mit.edu/mturk_stimuli/bjmedina/nhs-region-n_80/mem_stim_16.wav","0","main","","","false","mem_stim_16.wav","false","-1","","1","correct_rejection"
"","","","","","html-keyboard-response","72","249490","0.0-10.0-1.20","https://mcdermottlab.mit.edu/mturk_stimuli/bjmedina/nhs-region-n_80/sequences/isi_16/len120/seq061_len120_s70_isi-1p0_0p0_16p0.json","10.66","true","q1n2reqzmnx","","null","<span style=""font-size: 40px"">+</span>","null","","","","","","","","","",""
"","","","","","audio-button-response","73","252873","0.0-10.0-2.20","https://mcdermottlab.mit.edu/mturk_stimuli/bjmedina/nhs-region-n_80/sequences/isi_16/len120/seq061_len120_s70_isi-1p0_0p0_16p0.json","10.66","true","q1n2reqzmnx","","2661","https://mcdermottlab.mit.edu/mturk_stimuli/bjmedina/nhs-region-n_80/mem_stim_11.wav","0","main","","","false","mem_stim_11.wav","false","-1","","1","correct_rejection"
"","","","","","html-keyboard-response","74","252940","0.0-10.0-1.21","https://mcdermottlab.mit.edu/mturk_stimuli/bjmedina/nhs-region-n_80/sequences/isi_16/len120/seq061_len120_s70_isi-1p0_0p0_16p0.json","10.66","true","q1n2reqzmnx","","null","<span style=""font-size: 40px"">+</span>","null","","","","","","","","","",""
"","","","","","audio-button-response","75","255544","0.0-10.0-2.21","https://mcdermottlab.mit.edu/mturk_stimuli/bjmedina/nhs-region-n_80/sequences/isi_16/len120/seq061_len120_s70_isi-1p0_0p0_16p0.json","10.66","true","q1n2reqzmnx","","2600","https://mcdermottlab.mit.edu/mturk_stimuli/bjmedina/nhs-region-n_80/mem_stim_11.wav","3","main","","","true","mem_stim_11.wav","true","0","","0","miss"
"","","","","","html-keyboard-response","76","255607","0.0-10.0-1.22","https://mcdermottlab.mit.edu/mturk_stimuli/bjmedina/nhs-region-n_80/sequences/isi_16/len120/seq061_len120_s70_isi-1p0_0p0_16p0.json","10.66","true","q1n2reqzmnx","","null","<span style=""font-size: 40px"">+</span>","null","","","","","","","","","",""
"","","","","","audio-button-response","77","259321","0.0-10.0-2.22","https://mcdermottlab.mit.edu/mturk_stimuli/bjmedina/nhs-region-n_80/sequences/isi_16/len120/seq061_len120_s70_isi-1p0_0p0_16p0.json","10.66","true","q1n2reqzmnx","","3131","https://mcdermottlab.mit.edu/mturk_stimuli/bjmedina/nhs-region-n_80/mem_stim_63.wav","1","main","","","false","mem_stim_63.wav","false","-1","","0","false_alarm"
"","","","","","html-keyboard-response","78","259390","0.0-10.0-1.23","https://mcdermottlab.mit.edu/mturk_stimuli/bjmedina/nhs-region-n_80/sequences/isi_16/len120/seq061_len120_s70_isi-1p0_0p0_16p0.json","10.66","true","q1n2reqzmnx","","null","<span style=""font-size: 40px"">+</span>","null","","","","","","","","","",""
"","","","","","audio-button-response","79","261849","0.0-10.0-2.23","https://mcdermottlab.mit.edu/mturk_stimuli/bjmedina/nhs-region-n_80/sequences/isi_16/len120/seq061_len120_s70_isi-1p0_0p0_16p0.json","10.66","true","q1n2reqzmnx","","2451","https://mcdermottlab.mit.edu/mturk_stimuli/bjmedina/nhs-region-n_80/mem_stim_63.wav","3","main","","","true","mem_stim_63.wav","true","0","","0","miss"
"","","","","","html-keyboard-response","80","261907","0.0-10.0-1.24","https://mcdermottlab.mit.edu/mturk_stimuli/bjmedina/nhs-region-n_80/sequences/isi_16/len120/seq061_len120_s70_isi-1p0_0p0_16p0.json","10.66","true","q1n2reqzmnx","","null","<span style=""font-size: 40px"">+</span>","null","","","","","","","","","",""
"","","","","","audio-button-response","81","264584","0.0-10.0-2.24","https://mcdermottlab.mit.edu/mturk_stimuli/bjmedina/nhs-region-n_80/sequences/isi_16/len120/seq061_len120_s70_isi-1p0_0p0_16p0.json","10.66","true","q1n2reqzmnx","","2680","https://mcdermottlab.mit.edu/mturk_stimuli/bjmedina/nhs-region-n_80/mem_stim_38.wav","2","main","","","true","mem_stim_38.wav","false","16","","0","miss"
"","","","","","html-keyboard-response","82","264639","0.0-10.0-1.25","https://mcdermottlab.mit.edu/mturk_stimuli/bjmedina/nhs-region-n_80/sequences/isi_16/len120/seq061_len120_s70_isi-1p0_0p0_16p0.json","10.66","true","q1n2reqzmnx","","null","<span style=""font-size: 40px"">+</span>","null","","","","","","","","","",""
"","","","","","audio-button-response","83","267457","0.0-10.0-2.25","https://mcdermottlab.mit.edu/mturk_stimuli/bjmedina/nhs-region-n_80/sequences/isi_16/len120/seq061_len120_s70_isi-1p0_0p0_16p0.json","10.66","true","q1n2reqzmnx","","2389","https://mcdermottlab.mit.edu/mturk_stimuli/bjmedina/nhs-region-n_80/mem_stim_68.wav","0","main","","","false","mem_stim_68.wav","false","-1","","1","correct_rejection"
"","","","","","html-keyboard-response","84","267523","0.0-10.0-1.26","https://mcdermottlab.mit.edu/mturk_stimuli/bjmedina/nhs-region-n_80/sequences/isi_16/len120/seq061_len120_s70_isi-1p0_0p0_16p0.json","10.66","true","q1n2reqzmnx","","null","<span style=""font-size: 40px"">+</span>","null","","","","","","","","","",""
"","","","","","audio-button-response","85","269937","0.0-10.0-2.26","https://mcdermottlab.mit.edu/mturk_stimuli/bjmedina/nhs-region-n_80/sequences/isi_16/len120/seq061_len120_s70_isi-1p0_0p0_16p0.json","10.66","true","q1n2reqzmnx","","2408","https://mcdermottlab.mit.edu/mturk_stimuli/bjmedina/nhs-region-n_80/mem_stim_42.wav","2","main","","","true","mem_stim_42.wav","false","16","","0","miss"
"","","","","","html-keyboard-response","86","270007","0.0-10.0-1.27","https://mcdermottlab.mit.edu/mturk_stimuli/bjmedina/nhs-region-n_80/sequences/isi_16/len120/seq061_len120_s70_isi-1p0_0p0_16p0.json","10.66","true","q1n2reqzmnx","","null","<span style=""font-size: 40px"">+</span>","null","","","","","","","","","",""
"","","","","","audio-button-response","87","272360","0.0-10.0-2.27","https://mcdermottlab.mit.edu/mturk_stimuli/bjmedina/nhs-region-n_80/sequences/isi_16/len120/seq061_len120_s70_isi-1p0_0p0_16p0.json","10.66","true","q1n2reqzmnx","","2349","https://mcdermottlab.mit.edu/mturk_stimuli/bjmedina/nhs-region-n_80/mem_stim_55.wav","3","main","","","true","mem_stim_55.wav","false","16","","0","miss"
"","","","","","html-keyboard-response","88","272420","0.0-10.0-1.28","https://mcdermottlab.mit.edu/mturk_stimuli/bjmedina/nhs-region-n_80/sequences/isi_16/len120/seq061_len120_s70_isi-1p0_0p0_16p0.json","10.66","true","q1n2reqzmnx","","null","<span style=""font-size: 40px"">+</span>","null","","","","","","","","","",""
"","","","","","audio-button-response","89","275090","0.0-10.0-2.28","https://mcdermottlab.mit.edu/mturk_stimuli/bjmedina/nhs-region-n_80/sequences/isi_16/len120/seq061_len120_s70_isi-1p0_0p0_16p0.json","10.66","true","q1n2reqzmnx","","2661","https://mcdermottlab.mit.edu/mturk_stimuli/bjmedina/nhs-region-n_80/mem_stim_60.wav","2","main","","","true","mem_stim_60.wav","false","16","","0","miss"
"","","","","","html-keyboard-response","90","275157","0.0-10.0-1.29","https://mcdermottlab.mit.edu/mturk_stimuli/bjmedina/nhs-region-n_80/sequences/isi_16/len120/seq061_len120_s70_isi-1p0_0p0_16p0.json","10.66","true","q1n2reqzmnx","","null","<span style=""font-size: 40px"">+</span>","null","","","","","","","","","",""
"","","","","","audio-button-response","91","277513","0.0-10.0-2.29","https://mcdermottlab.mit.edu/mturk_stimuli/bjmedina/nhs-region-n_80/sequences/isi_16/len120/seq061_len120_s70_isi-1p0_0p0_16p0.json","10.66","true","q1n2reqzmnx","","2360","https://mcdermottlab.mit.edu/mturk_stimuli/bjmedina/nhs-region-n_80/mem_stim_73.wav","3","main","","","true","mem_stim_73.wav","false","16","","0","miss"
"","","","","","html-keyboard-response","92","277575","0.0-10.0-1.30","https://mcdermottlab.mit.edu/mturk_stimuli/bjmedina/nhs-region-n_80/sequences/isi_16/len120/seq061_len120_s70_isi-1p0_0p0_16p0.json","10.66","true","q1n2reqzmnx","","null","<span style=""font-size: 40px"">+</span>","null","","","","","","","","","",""
"","","","","","audio-button-response","93","280705","0.0-10.0-2.30","https://mcdermottlab.mit.edu/mturk_stimuli/bjmedina/nhs-region-n_80/sequences/isi_16/len120/seq061_len120_s70_isi-1p0_0p0_16p0.json","10.66","true","q1n2reqzmnx","","2539","https://mcdermottlab.mit.edu/mturk_stimuli/bjmedina/nhs-region-n_80/mem_stim_21.wav","0","main","","","false","mem_stim_21.wav","false","-1","","1","correct_rejection"
"","","","","","html-keyboard-response","94","280770","0.0-10.0-1.31","https://mcdermottlab.mit.edu/mturk_stimuli/bjmedina/nhs-region-n_80/sequences/isi_16/len120/seq061_len120_s70_isi-1p0_0p0_16p0.json","10.66","true","q1n2reqzmnx","","null","<span style=""font-size: 40px"">+</span>","null","","","","","","","","","",""
"","","","","","audio-button-response","95","285009","0.0-10.0-2.31","https://mcdermottlab.mit.edu/mturk_stimuli/bjmedina/nhs-region-n_80/sequences/isi_16/len120/seq061_len120_s70_isi-1p0_0p0_16p0.json","10.66","true","q1n2reqzmnx","","3811","https://mcdermottlab.mit.edu/mturk_stimuli/bjmedina/nhs-region-n_80/mem_stim_32.wav","2","main","","","false","mem_stim_32.wav","false","-1","","1","correct_rejection"
"","","","","","html-keyboard-response","96","285069","0.0-10.0-1.32","https://mcdermottlab.mit.edu/mturk_stimuli/bjmedina/nhs-region-n_80/sequences/isi_16/len120/seq061_len120_s70_isi-1p0_0p0_16p0.json","10.66","true","q1n2reqzmnx","","null","<span style=""font-size: 40px"">+</span>","null","","","","","","","","","",""
"","","","","","audio-button-response","97","287490","0.0-10.0-2.32","https://mcdermottlab.mit.edu/mturk_stimuli/bjmedina/nhs-region-n_80/sequences/isi_16/len120/seq061_len120_s70_isi-1p0_0p0_16p0.json","10.66","true","q1n2reqzmnx","","2421","https://mcdermottlab.mit.edu/mturk_stimuli/bjmedina/nhs-region-n_80/mem_stim_71.wav","3","main","","","true","mem_stim_71.wav","false","16","","0","miss"
"","","","","","html-keyboard-response","98","287555","0.0-10.0-1.33","https://mcdermottlab.mit.edu/mturk_stimuli/bjmedina/nhs-region-n_80/sequences/isi_16/len120/seq061_len120_s70_isi-1p0_0p0_16p0.json","10.66","true","q1n2reqzmnx","","null","<span style=""font-size: 40px"">+</span>","null","","","","","","","","","",""
"","","","","","audio-button-response","99","291369","0.0-10.0-2.33","https://mcdermottlab.mit.edu/mturk_stimuli/bjmedina/nhs-region-n_80/sequences/isi_16/len120/seq061_len120_s70_isi-1p0_0p0_16p0.json","10.66","true","q1n2reqzmnx","","3811","https://mcdermottlab.mit.edu/mturk_stimuli/bjmedina/nhs-region-n_80/mem_stim_75.wav","2","main","","","true","mem_stim_75.wav","false","16","","0","miss"
"","","","","","html-keyboard-response","100","291423","0.0-10.0-1.34","https://mcdermottlab.mit.edu/mturk_stimuli/bjmedina/nhs-region-n_80/sequences/isi_16/len120/seq061_len120_s70_isi-1p0_0p0_16p0.json","10.66","true","q1n2reqzmnx","","null","<span style=""font-size: 40px"">+</span>","null","","","","","","","","","",""
"","","","","","audio-button-response","101","295010","0.0-10.0-2.34","https://mcdermottlab.mit.edu/mturk_stimuli/bjmedina/nhs-region-n_80/sequences/isi_16/len120/seq061_len120_s70_isi-1p0_0p0_16p0.json","10.66","true","q1n2reqzmnx","","2981","https://mcdermottlab.mit.edu/mturk_stimuli/bjmedina/nhs-region-n_80/mem_stim_20.wav","1","main","","","false","mem_stim_20.wav","false","-1","","0","false_alarm"
"","","","","","html-keyboard-response","102","295077","0.0-10.0-1.35","https://mcdermottlab.mit.edu/mturk_stimuli/bjmedina/nhs-region-n_80/sequences/isi_16/len120/seq061_len120_s70_isi-1p0_0p0_16p0.json","10.66","true","q1n2reqzmnx","","null","<span style=""font-size: 40px"">+</span>","null","","","","","","","","","",""
"","","","","","audio-button-response","103","297473","0.0-10.0-2.35","https://mcdermottlab.mit.edu/mturk_stimuli/bjmedina/nhs-region-n_80/sequences/isi_16/len120/seq061_len120_s70_isi-1p0_0p0_16p0.json","10.66","true","q1n2reqzmnx","","2400","https://mcdermottlab.mit.edu/mturk_stimuli/bjmedina/nhs-region-n_80/mem_stim_20.wav","3","main","","","true","mem_stim_20.wav","true","0","","0","miss"
"","","","","","html-keyboard-response","104","297541","0.0-10.0-1.36","https://mcdermottlab.mit.edu/mturk_stimuli/bjmedina/nhs-region-n_80/sequences/isi_16/len120/seq061_len120_s70_isi-1p0_0p0_16p0.json","10.66","true","q1n2reqzmnx","","null","<span style=""font-size: 40px"">+</span>","null","","","","","","","","","",""
"","","","","","audio-button-response","105","302723","0.0-10.0-2.36","https://mcdermottlab.mit.edu/mturk_stimuli/bjmedina/nhs-region-n_80/sequences/isi_16/len120/seq061_len120_s70_isi-1p0_0p0_16p0.json","10.66","true","q1n2reqzmnx","","4291","https://mcdermottlab.mit.edu/mturk_stimuli/bjmedina/nhs-region-n_80/mem_stim_5.wav","1","main","","","false","mem_stim_5.wav","false","-1","","0","false_alarm"
"","","","","","html-keyboard-response","106","302789","0.0-10.0-1.37","https://mcdermottlab.mit.edu/mturk_stimuli/bjmedina/nhs-region-n_80/sequences/isi_16/len120/seq061_len120_s70_isi-1p0_0p0_16p0.json","10.66","true","q1n2reqzmnx","","null","<span style=""font-size: 40px"">+</span>","null","","","","","","","","","",""
"","","","","","audio-button-response","107","305786","0.0-10.0-2.37","https://mcdermottlab.mit.edu/mturk_stimuli/bjmedina/nhs-region-n_80/sequences/isi_16/len120/seq061_len120_s70_isi-1p0_0p0_16p0.json","10.66","true","q1n2reqzmnx","","2371","https://mcdermottlab.mit.edu/mturk_stimuli/bjmedina/nhs-region-n_80/mem_stim_72.wav","0","main","","","false","mem_stim_72.wav","false","-1","","1","correct_rejection"
"","","","","","html-keyboard-response","108","305841","0.0-10.0-1.38","https://mcdermottlab.mit.edu/mturk_stimuli/bjmedina/nhs-region-n_80/sequences/isi_16/len120/seq061_len120_s70_isi-1p0_0p0_16p0.json","10.66","true","q1n2reqzmnx","","null","<span style=""font-size: 40px"">+</span>","null","","","","","","","","","",""
"","","","","","audio-button-response","109","309003","0.0-10.0-2.38","https://mcdermottlab.mit.edu/mturk_stimuli/bjmedina/nhs-region-n_80/sequences/isi_16/len120/seq061_len120_s70_isi-1p0_0p0_16p0.json","10.66","true","q1n2reqzmnx","","2451","https://mcdermottlab.mit.edu/mturk_stimuli/bjmedina/nhs-region-n_80/mem_stim_76.wav","0","main","","","false","mem_stim_76.wav","false","-1","","1","correct_rejection"
"","","","","","html-keyboard-response","110","309057","0.0-10.0-1.39","https://mcdermottlab.mit.edu/mturk_stimuli/bjmedina/nhs-region-n_80/sequences/isi_16/len120/seq061_len120_s70_isi-1p0_0p0_16p0.json","10.66","true","q1n2reqzmnx","","null","<span style=""font-size: 40px"">+</span>","null","","","","","","","","","",""
"","","","","","audio-button-response","111","311890","0.0-10.0-2.39","https://mcdermottlab.mit.edu/mturk_stimuli/bjmedina/nhs-region-n_80/sequences/isi_16/len120/seq061_len120_s70_isi-1p0_0p0_16p0.json","10.66","true","q1n2reqzmnx","","2400","https://mcdermottlab.mit.edu/mturk_stimuli/bjmedina/nhs-region-n_80/mem_stim_1.wav","3","main","","","false","mem_stim_1.wav","false","-1","","1","correct_rejection"
"","","","","","html-keyboard-response","112","311958","0.0-10.0-1.40","https://mcdermottlab.mit.edu/mturk_stimuli/bjmedina/nhs-region-n_80/sequences/isi_16/len120/seq061_len120_s70_isi-1p0_0p0_16p0.json","10.66","true","q1n2reqzmnx","","null","<span style=""font-size: 40px"">+</span>","null","","","","","","","","","",""
"","","","","","audio-button-response","113","315033","0.0-10.0-2.40","https://mcdermottlab.mit.edu/mturk_stimuli/bjmedina/nhs-region-n_80/sequences/isi_16/len120/seq061_len120_s70_isi-1p0_0p0_16p0.json","10.66","true","q1n2reqzmnx","","2389","https://mcdermottlab.mit.edu/mturk_stimuli/bjmedina/nhs-region-n_80/mem_stim_43.wav","0","main","","","false","mem_stim_43.wav","false","-1","","1","correct_rejection"
"","","","","","html-keyboard-response","114","315091","0.0-10.0-1.41","https://mcdermottlab.mit.edu/mturk_stimuli/bjmedina/nhs-region-n_80/sequences/isi_16/len120/seq061_len120_s70_isi-1p0_0p0_16p0.json","10.66","true","q1n2reqzmnx","","null","<span style=""font-size: 40px"">+</span>","null","","","","","","","","","",""
"","","","","","audio-button-response","115","317953","0.0-10.0-2.41","https://mcdermottlab.mit.edu/mturk_stimuli/bjmedina/nhs-region-n_80/sequences/isi_16/len120/seq061_len120_s70_isi-1p0_0p0_16p0.json","10.66","true","q1n2reqzmnx","","2440","https://mcdermottlab.mit.edu/mturk_stimuli/bjmedina/nhs-region-n_80/mem_stim_22.wav","1","main","","","false","mem_stim_22.wav","false","-1","","0","false_alarm"
"","","","","","html-keyboard-response","116","318007","0.0-10.0-1.42","https://mcdermottlab.mit.edu/mturk_stimuli/bjmedina/nhs-region-n_80/sequences/isi_16/len120/seq061_len120_s70_isi-1p0_0p0_16p0.json","10.66","true","q1n2reqzmnx","","null","<span style=""font-size: 40px"">+</span>","null","","","","","","","","","",""
"","","","","","audio-button-response","117","320434","0.0-10.0-2.42","https://mcdermottlab.mit.edu/mturk_stimuli/bjmedina/nhs-region-n_80/sequences/isi_16/len120/seq061_len120_s70_isi-1p0_0p0_16p0.json","10.66","true","q1n2reqzmnx","","2429","https://mcdermottlab.mit.edu/mturk_stimuli/bjmedina/nhs-region-n_80/mem_stim_68.wav","3","main","","","true","mem_stim_68.wav","false","16","","0","miss"
"","","","","","html-keyboard-response","118","320491","0.0-10.0-1.43","https://mcdermottlab.mit.edu/mturk_stimuli/bjmedina/nhs-region-n_80/sequences/isi_16/len120/seq061_len120_s70_isi-1p0_0p0_16p0.json","10.66","true","q1n2reqzmnx","","null","<span style=""font-size: 40px"">+</span>","null","","","","","","","","","",""
"","","","","","audio-button-response","119","323514","0.0-10.0-2.43","https://mcdermottlab.mit.edu/mturk_stimuli/bjmedina/nhs-region-n_80/sequences/isi_16/len120/seq061_len120_s70_isi-1p0_0p0_16p0.json","10.66","true","q1n2reqzmnx","","2411","https://mcdermottlab.mit.edu/mturk_stimuli/bjmedina/nhs-region-n_80/mem_stim_65.wav","2","main","","","false","mem_stim_65.wav","false","-1","","1","correct_rejection"
"","","","","","html-keyboard-response","120","323571","0.0-10.0-1.44","https://mcdermottlab.mit.edu/mturk_stimuli/bjmedina/nhs-region-n_80/sequences/isi_16/len120/seq061_len120_s70_isi-1p0_0p0_16p0.json","10.66","true","q1n2reqzmnx","","null","<span style=""font-size: 40px"">+</span>","null","","","","","","","","","",""
"","","","","","audio-button-response","121","326954","0.0-10.0-2.44","https://mcdermottlab.mit.edu/mturk_stimuli/bjmedina/nhs-region-n_80/sequences/isi_16/len120/seq061_len120_s70_isi-1p0_0p0_16p0.json","10.66","true","q1n2reqzmnx","","2451","https://mcdermottlab.mit.edu/mturk_stimuli/bjmedina/nhs-region-n_80/mem_stim_15.wav","0","main","","","false","mem_stim_15.wav","false","-1","","1","correct_rejection"
"","","","","","html-keyboard-response","122","327026","0.0-10.0-1.45","https://mcdermottlab.mit.edu/mturk_stimuli/bjmedina/nhs-region-n_80/sequences/isi_16/len120/seq061_len120_s70_isi-1p0_0p0_16p0.json","10.66","true","q1n2reqzmnx","","null","<span style=""font-size: 40px"">+</span>","null","","","","","","","","","",""
"","","","","","audio-button-response","123","330307","0.0-10.0-2.45","https://mcdermottlab.mit.edu/mturk_stimuli/bjmedina/nhs-region-n_80/sequences/isi_16/len120/seq061_len120_s70_isi-1p0_0p0_16p0.json","10.66","true","q1n2reqzmnx","","2389","https://mcdermottlab.mit.edu/mturk_stimuli/bjmedina/nhs-region-n_80/mem_stim_6.wav","3","main","","","false","mem_stim_6.wav","false","-1","","1","correct_rejection"
"","","","","","html-keyboard-response","124","330376","0.0-10.0-1.46","https://mcdermottlab.mit.edu/mturk_stimuli/bjmedina/nhs-region-n_80/sequences/isi_16/len120/seq061_len120_s70_isi-1p0_0p0_16p0.json","10.66","true","q1n2reqzmnx","","null","<span style=""font-size: 40px"">+</span>","null","","","","","","","","","",""
"","","","","","audio-button-response","125","333818","0.0-10.0-2.46","https://mcdermottlab.mit.edu/mturk_stimuli/bjmedina/nhs-region-n_80/sequences/isi_16/len120/seq061_len120_s70_isi-1p0_0p0_16p0.json","10.66","true","q1n2reqzmnx","","2400","https://mcdermottlab.mit.edu/mturk_stimuli/bjmedina/nhs-region-n_80/mem_stim_45.wav","2","main","","","false","mem_stim_45.wav","false","-1","","1","correct_rejection"
"","","","","","html-keyboard-response","126","333876","0.0-10.0-1.47","https://mcdermottlab.mit.edu/mturk_stimuli/bjmedina/nhs-region-n_80/sequences/isi_16/len120/seq061_len120_s70_isi-1p0_0p0_16p0.json","10.66","true","q1n2reqzmnx","","null","<span style=""font-size: 40px"">+</span>","null","","","","","","","","","",""
"","","","","","audio-button-response","127","336363","0.0-10.0-2.47","https://mcdermottlab.mit.edu/mturk_stimuli/bjmedina/nhs-region-n_80/sequences/isi_16/len120/seq061_len120_s70_isi-1p0_0p0_16p0.json","10.66","true","q1n2reqzmnx","","2480","https://mcdermottlab.mit.edu/mturk_stimuli/bjmedina/nhs-region-n_80/mem_stim_21.wav","3","main","","","true","mem_stim_21.wav","false","16","","0","miss"
"","","","","","html-keyboard-response","128","336429","0.0-10.0-1.48","https://mcdermottlab.mit.edu/mturk_stimuli/bjmedina/nhs-region-n_80/sequences/isi_16/len120/seq061_len120_s70_isi-1p0_0p0_16p0.json","10.66","true","q1n2reqzmnx","","null","<span style=""font-size: 40px"">+</span>","null","","","","","","","","","",""
"","","","","","audio-button-response","129","338841","0.0-10.0-2.48","https://mcdermottlab.mit.edu/mturk_stimuli/bjmedina/nhs-region-n_80/sequences/isi_16/len120/seq061_len120_s70_isi-1p0_0p0_16p0.json","10.66","true","q1n2reqzmnx","","2411","https://mcdermottlab.mit.edu/mturk_stimuli/bjmedina/nhs-region-n_80/mem_stim_32.wav","2","main","","","true","mem_stim_32.wav","false","16","","0","miss"
"","","","","","html-keyboard-response","130","338909","0.0-10.0-1.49","https://mcdermottlab.mit.edu/mturk_stimuli/bjmedina/nhs-region-n_80/sequences/isi_16/len120/seq061_len120_s70_isi-1p0_0p0_16p0.json","10.66","true","q1n2reqzmnx","","null","<span style=""font-size: 40px"">+</span>","null","","","","","","","","","",""
"","","","","","audio-button-response","131","343292","0.0-10.0-2.49","https://mcdermottlab.mit.edu/mturk_stimuli/bjmedina/nhs-region-n_80/sequences/isi_16/len120/seq061_len120_s70_isi-1p0_0p0_16p0.json","10.66","true","q1n2reqzmnx","","3771","https://mcdermottlab.mit.edu/mturk_stimuli/bjmedina/nhs-region-n_80/mem_stim_10.wav","1","main","","","false","mem_stim_10.wav","false","-1","","0","false_alarm"
"","","","","","html-keyboard-response","132","343357","0.0-10.0-1.50","https://mcdermottlab.mit.edu/mturk_stimuli/bjmedina/nhs-region-n_80/sequences/isi_16/len120/seq061_len120_s70_isi-1p0_0p0_16p0.json","10.66","true","q1n2reqzmnx","","null","<span style=""font-size: 40px"">+</span>","null","","","","","","","","","",""
"","","","","","audio-button-response","133","345714","0.0-10.0-2.50","https://mcdermottlab.mit.edu/mturk_stimuli/bjmedina/nhs-region-n_80/sequences/isi_16/len120/seq061_len120_s70_isi-1p0_0p0_16p0.json","10.66","true","q1n2reqzmnx","","2360","https://mcdermottlab.mit.edu/mturk_stimuli/bjmedina/nhs-region-n_80/mem_stim_10.wav","3","main","","","true","mem_stim_10.wav","true","0","","0","miss"
"","","","","","html-keyboard-response","134","345776","0.0-10.0-1.51","https://mcdermottlab.mit.edu/mturk_stimuli/bjmedina/nhs-region-n_80/sequences/isi_16/len120/seq061_len120_s70_isi-1p0_0p0_16p0.json","10.66","true","q1n2reqzmnx","","null","<span style=""font-size: 40px"">+</span>","null","","","","","","","","","",""
"","","","","","audio-button-response","135","349338","0.0-10.0-2.51","https://mcdermottlab.mit.edu/mturk_stimuli/bjmedina/nhs-region-n_80/sequences/isi_16/len120/seq061_len120_s70_isi-1p0_0p0_16p0.json","10.66","true","q1n2reqzmnx","","2989","https://mcdermottlab.mit.edu/mturk_stimuli/bjmedina/nhs-region-n_80/mem_stim_54.wav","1","main","","","false","mem_stim_54.wav","false","-1","","0","false_alarm"
"","","","","","html-keyboard-response","136","349392","0.0-10.0-1.52","https://mcdermottlab.mit.edu/mturk_stimuli/bjmedina/nhs-region-n_80/sequences/isi_16/len120/seq061_len120_s70_isi-1p0_0p0_16p0.json","10.66","true","q1n2reqzmnx","","null","<span style=""font-size: 40px"">+</span>","null","","","","","","","","","",""
"","","","","","audio-button-response","137","352307","0.0-10.0-2.52","https://mcdermottlab.mit.edu/mturk_stimuli/bjmedina/nhs-region-n_80/sequences/isi_16/len120/seq061_len120_s70_isi-1p0_0p0_16p0.json","10.66","true","q1n2reqzmnx","","2491","https://mcdermottlab.mit.edu/mturk_stimuli/bjmedina/nhs-region-n_80/mem_stim_29.wav","0","main","","","false","mem_stim_29.wav","false","-1","","1","correct_rejection"
"","","","","","html-keyboard-response","138","352377","0.0-10.0-1.53","https://mcdermottlab.mit.edu/mturk_stimuli/bjmedina/nhs-region-n_80/sequences/isi_16/len120/seq061_len120_s70_isi-1p0_0p0_16p0.json","10.66","true","q1n2reqzmnx","","null","<span style=""font-size: 40px"">+</span>","null","","","","","","","","","",""
"","","","","","audio-button-response","139","355811","0.0-10.0-2.53","https://mcdermottlab.mit.edu/mturk_stimuli/bjmedina/nhs-region-n_80/sequences/isi_16/len120/seq061_len120_s70_isi-1p0_0p0_16p0.json","10.66","true","q1n2reqzmnx","","2581","https://mcdermottlab.mit.edu/mturk_stimuli/bjmedina/nhs-region-n_80/mem_stim_67.wav","2","main","","","false","mem_stim_67.wav","false","-1","","1","correct_rejection"
"","","","","","html-keyboard-response","140","355872","0.0-10.0-1.54","https://mcdermottlab.mit.edu/mturk_stimuli/bjmedina/nhs-region-n_80/sequences/isi_16/len120/seq061_len120_s70_isi-1p0_0p0_16p0.json","10.66","true","q1n2reqzmnx","","null","<span style=""font-size: 40px"">+</span>","null","","","","","","","","","",""
"","","","","","audio-button-response","141","358347","0.0-10.0-2.54","https://mcdermottlab.mit.edu/mturk_stimuli/bjmedina/nhs-region-n_80/sequences/isi_16/len120/seq061_len120_s70_isi-1p0_0p0_16p0.json","10.66","true","q1n2reqzmnx","","2469","https://mcdermottlab.mit.edu/mturk_stimuli/bjmedina/nhs-region-n_80/mem_stim_72.wav","2","main","","","true","mem_stim_72.wav","false","16","","0","miss"
"","","","","","html-keyboard-response","142","358401","0.0-10.0-1.55","https://mcdermottlab.mit.edu/mturk_stimuli/bjmedina/nhs-region-n_80/sequences/isi_16/len120/seq061_len120_s70_isi-1p0_0p0_16p0.json","10.66","true","q1n2reqzmnx","","null","<span style=""font-size: 40px"">+</span>","null","","","","","","","","","",""
"","","","","","audio-button-response","143","360834","0.0-10.0-2.55","https://mcdermottlab.mit.edu/mturk_stimuli/bjmedina/nhs-region-n_80/sequences/isi_16/len120/seq061_len120_s70_isi-1p0_0p0_16p0.json","10.66","true","q1n2reqzmnx","","2429","https://mcdermottlab.mit.edu/mturk_stimuli/bjmedina/nhs-region-n_80/mem_stim_76.wav","3","main","","","true","mem_stim_76.wav","false","16","","0","miss"
"","","","","","html-keyboard-response","144","360892","0.0-10.0-1.56","https://mcdermottlab.mit.edu/mturk_stimuli/bjmedina/nhs-region-n_80/sequences/isi_16/len120/seq061_len120_s70_isi-1p0_0p0_16p0.json","10.66","true","q1n2reqzmnx","","null","<span style=""font-size: 40px"">+</span>","null","","","","","","","","","",""
"","","","","","audio-button-response","145","363875","0.0-10.0-2.56","https://mcdermottlab.mit.edu/mturk_stimuli/bjmedina/nhs-region-n_80/sequences/isi_16/len120/seq061_len120_s70_isi-1p0_0p0_16p0.json","10.66","true","q1n2reqzmnx","","2371","https://mcdermottlab.mit.edu/mturk_stimuli/bjmedina/nhs-region-n_80/mem_stim_17.wav","3","main","","","false","mem_stim_17.wav","false","-1","","1","correct_rejection"
"","","","","","html-keyboard-response","146","363931","0.0-10.0-1.57","https://mcdermottlab.mit.edu/mturk_stimuli/bjmedina/nhs-region-n_80/sequences/isi_16/len120/seq061_len120_s70_isi-1p0_0p0_16p0.json","10.66","true","q1n2reqzmnx","","null","<span style=""font-size: 40px"">+</span>","null","","","","","","","","","",""
"","","","","","audio-button-response","147","366314","0.0-10.0-2.57","https://mcdermottlab.mit.edu/mturk_stimuli/bjmedina/nhs-region-n_80/sequences/isi_16/len120/seq061_len120_s70_isi-1p0_0p0_16p0.json","10.66","true","q1n2reqzmnx","","2381","https://mcdermottlab.mit.edu/mturk_stimuli/bjmedina/nhs-region-n_80/mem_stim_43.wav","3","main","","","true","mem_stim_43.wav","false","16","","0","miss"
"","","","","","html-keyboard-response","148","366377","0.0-10.0-1.58","https://mcdermottlab.mit.edu/mturk_stimuli/bjmedina/nhs-region-n_80/sequences/isi_16/len120/seq061_len120_s70_isi-1p0_0p0_16p0.json","10.66","true","q1n2reqzmnx","","null","<span style=""font-size: 40px"">+</span>","null","","","","","","","","","",""
"","","","","","audio-button-response","149","369266","0.0-10.0-2.58","https://mcdermottlab.mit.edu/mturk_stimuli/bjmedina/nhs-region-n_80/sequences/isi_16/len120/seq061_len120_s70_isi-1p0_0p0_16p0.json","10.66","true","q1n2reqzmnx","","2459","https://mcdermottlab.mit.edu/mturk_stimuli/bjmedina/nhs-region-n_80/mem_stim_40.wav","1","main","","","false","mem_stim_40.wav","false","-1","","0","false_alarm"
"","","","","","html-keyboard-response","150","369327","0.0-10.0-1.59","https://mcdermottlab.mit.edu/mturk_stimuli/bjmedina/nhs-region-n_80/sequences/isi_16/len120/seq061_len120_s70_isi-1p0_0p0_16p0.json","10.66","true","q1n2reqzmnx","","null","<span style=""font-size: 40px"">+</span>","null","","","","","","","","","",""
"","","","","","audio-button-response","151","372971","0.0-10.0-2.59","https://mcdermottlab.mit.edu/mturk_stimuli/bjmedina/nhs-region-n_80/sequences/isi_16/len120/seq061_len120_s70_isi-1p0_0p0_16p0.json","10.66","true","q1n2reqzmnx","","3200","https://mcdermottlab.mit.edu/mturk_stimuli/bjmedina/nhs-region-n_80/mem_stim_41.wav","1","main","","","false","mem_stim_41.wav","false","-1","","0","false_alarm"
"","","","","","html-keyboard-response","152","373025","0.0-10.0-1.60","https://mcdermottlab.mit.edu/mturk_stimuli/bjmedina/nhs-region-n_80/sequences/isi_16/len120/seq061_len120_s70_isi-1p0_0p0_16p0.json","10.66","true","q1n2reqzmnx","","null","<span style=""font-size: 40px"">+</span>","null","","","","","","","","","",""
"","","","","","audio-button-response","153","375739","0.0-10.0-2.60","https://mcdermottlab.mit.edu/mturk_stimuli/bjmedina/nhs-region-n_80/sequences/isi_16/len120/seq061_len120_s70_isi-1p0_0p0_16p0.json","10.66","true","q1n2reqzmnx","","2709","https://mcdermottlab.mit.edu/mturk_stimuli/bjmedina/nhs-region-n_80/mem_stim_65.wav","3","main","","","true","mem_stim_65.wav","false","16","","0","miss"
"","","","","","html-keyboard-response","154","375793","0.0-10.0-1.61","https://mcdermottlab.mit.edu/mturk_stimuli/bjmedina/nhs-region-n_80/sequences/isi_16/len120/seq061_len120_s70_isi-1p0_0p0_16p0.json","10.66","true","q1n2reqzmnx","","null","<span style=""font-size: 40px"">+</span>","null","","","","","","","","","",""
"","","","","","audio-button-response","155","379061","0.0-10.0-2.61","https://mcdermottlab.mit.edu/mturk_stimuli/bjmedina/nhs-region-n_80/sequences/isi_16/len120/seq061_len120_s70_isi-1p0_0p0_16p0.json","10.66","true","q1n2reqzmnx","","2659","https://mcdermottlab.mit.edu/mturk_stimuli/bjmedina/nhs-region-n_80/mem_stim_79.wav","2","main","","","false","mem_stim_79.wav","false","-1","","1","correct_rejection"
"","","","","","html-keyboard-response","156","379128","0.0-10.0-1.62","https://mcdermottlab.mit.edu/mturk_stimuli/bjmedina/nhs-region-n_80/sequences/isi_16/len120/seq061_len120_s70_isi-1p0_0p0_16p0.json","10.66","true","q1n2reqzmnx","","null","<span style=""font-size: 40px"">+</span>","null","","","","","","","","","",""
"","","","","","audio-button-response","157","382004","0.0-10.0-2.62","https://mcdermottlab.mit.edu/mturk_stimuli/bjmedina/nhs-region-n_80/sequences/isi_16/len120/seq061_len120_s70_isi-1p0_0p0_16p0.json","10.66","true","q1n2reqzmnx","","2472","https://mcdermottlab.mit.edu/mturk_stimuli/bjmedina/nhs-region-n_80/mem_stim_61.wav","1","main","","","false","mem_stim_61.wav","false","-1","","0","false_alarm"
"","","","","","html-keyboard-response","158","382059","0.0-10.0-1.63","https://mcdermottlab.mit.edu/mturk_stimuli/bjmedina/nhs-region-n_80/sequences/isi_16/len120/seq061_len120_s70_isi-1p0_0p0_16p0.json","10.66","true","q1n2reqzmnx","","null","<span style=""font-size: 40px"">+</span>","null","","","","","","","","","",""
"","","","","","audio-button-response","159","384419","0.0-10.0-2.63","https://mcdermottlab.mit.edu/mturk_stimuli/bjmedina/nhs-region-n_80/sequences/isi_16/len120/seq061_len120_s70_isi-1p0_0p0_16p0.json","10.66","true","q1n2reqzmnx","","2360","https://mcdermottlab.mit.edu/mturk_stimuli/bjmedina/nhs-region-n_80/mem_stim_61.wav","3","main","","","true","mem_stim_61.wav","true","0","","0","miss"
"","","","","","html-keyboard-response","160","384478","0.0-10.0-1.64","https://mcdermottlab.mit.edu/mturk_stimuli/bjmedina/nhs-region-n_80/sequences/isi_16/len120/seq061_len120_s70_isi-1p0_0p0_16p0.json","10.66","true","q1n2reqzmnx","","null","<span style=""font-size: 40px"">+</span>","null","","","","","","","","","",""
"","","","","","audio-button-response","161","389173","0.0-10.0-2.64","https://mcdermottlab.mit.edu/mturk_stimuli/bjmedina/nhs-region-n_80/sequences/isi_16/len120/seq061_len120_s70_isi-1p0_0p0_16p0.json","10.66","true","q1n2reqzmnx","","4131","https://mcdermottlab.mit.edu/mturk_stimuli/bjmedina/nhs-region-n_80/mem_stim_34.wav","1","main","","","false","mem_stim_34.wav","false","-1","","0","false_alarm"
"","","","","","html-keyboard-response","162","389227","0.0-10.0-1.65","https://mcdermottlab.mit.edu/mturk_stimuli/bjmedina/nhs-region-n_80/sequences/isi_16/len120/seq061_len120_s70_isi-1p0_0p0_16p0.json","10.66","true","q1n2reqzmnx","","null","<span style=""font-size: 40px"">+</span>","null","","","","","","","","","",""
"","","","","","audio-button-response","163","392267","0.0-10.0-2.65","https://mcdermottlab.mit.edu/mturk_stimuli/bjmedina/nhs-region-n_80/sequences/isi_16/len120/seq061_len120_s70_isi-1p0_0p0_16p0.json","10.66","true","q1n2reqzmnx","","2619","https://mcdermottlab.mit.edu/mturk_stimuli/bjmedina/nhs-region-n_80/mem_stim_23.wav","0","main","","","false","mem_stim_23.wav","false","-1","","1","correct_rejection"
"","","","","","html-keyboard-response","164","392328","0.0-10.0-1.66","https://mcdermottlab.mit.edu/mturk_stimuli/bjmedina/nhs-region-n_80/sequences/isi_16/len120/seq061_len120_s70_isi-1p0_0p0_16p0.json","10.66","true","q1n2reqzmnx","","null","<span style=""font-size: 40px"">+</span>","null","","","","","","","","","",""
"","","","","","audio-button-response","165","396012","0.0-10.0-2.66","https://mcdermottlab.mit.edu/mturk_stimuli/bjmedina/nhs-region-n_80/sequences/isi_16/len120/seq061_len120_s70_isi-1p0_0p0_16p0.json","10.66","true","q1n2reqzmnx","","3261","https://mcdermottlab.mit.edu/mturk_stimuli/bjmedina/nhs-region-n_80/mem_stim_51.wav","0","main","","","false","mem_stim_51.wav","false","-1","","1","correct_rejection"
"","","","","","html-keyboard-response","166","396078","0.0-10.0-1.67","https://mcdermottlab.mit.edu/mturk_stimuli/bjmedina/nhs-region-n_80/sequences/isi_16/len120/seq061_len120_s70_isi-1p0_0p0_16p0.json","10.66","true","q1n2reqzmnx","","null","<span style=""font-size: 40px"">+</span>","null","","","","","","","","","",""
"","","","","","audio-button-response","167","399812","0.0-10.0-2.67","https://mcdermottlab.mit.edu/mturk_stimuli/bjmedina/nhs-region-n_80/sequences/isi_16/len120/seq061_len120_s70_isi-1p0_0p0_16p0.json","10.66","true","q1n2reqzmnx","","2792","https://mcdermottlab.mit.edu/mturk_stimuli/bjmedina/nhs-region-n_80/mem_stim_47.wav","1","main","","","false","mem_stim_47.wav","false","-1","","0","false_alarm"
"","","","","","html-keyboard-response","168","399878","0.0-10.0-1.68","https://mcdermottlab.mit.edu/mturk_stimuli/bjmedina/nhs-region-n_80/sequences/isi_16/len120/seq061_len120_s70_isi-1p0_0p0_16p0.json","10.66","true","q1n2reqzmnx","","null","<span style=""font-size: 40px"">+</span>","null","","","","","","","","","",""
"","","","","","audio-button-response","169","402267","0.0-10.0-2.68","https://mcdermottlab.mit.edu/mturk_stimuli/bjmedina/nhs-region-n_80/sequences/isi_16/len120/seq061_len120_s70_isi-1p0_0p0_16p0.json","10.66","true","q1n2reqzmnx","","2389","https://mcdermottlab.mit.edu/mturk_stimuli/bjmedina/nhs-region-n_80/mem_stim_47.wav","3","main","","","true","mem_stim_47.wav","true","0","","0","miss"
"","","","","","html-keyboard-response","170","402328","0.0-10.0-1.69","https://mcdermottlab.mit.edu/mturk_stimuli/bjmedina/nhs-region-n_80/sequences/isi_16/len120/seq061_len120_s70_isi-1p0_0p0_16p0.json","10.66","true","q1n2reqzmnx","","null","<span style=""font-size: 40px"">+</span>","null","","","","","","","","","",""
"","","","","","audio-button-response","171","404725","0.0-10.0-2.69","https://mcdermottlab.mit.edu/mturk_stimuli/bjmedina/nhs-region-n_80/sequences/isi_16/len120/seq061_len120_s70_isi-1p0_0p0_16p0.json","10.66","true","q1n2reqzmnx","","2400","https://mcdermottlab.mit.edu/mturk_stimuli/bjmedina/nhs-region-n_80/mem_stim_29.wav","3","main","","","true","mem_stim_29.wav","false","16","","0","miss"
"","","","","","html-keyboard-response","172","404793","0.0-10.0-1.70","https://mcdermottlab.mit.edu/mturk_stimuli/bjmedina/nhs-region-n_80/sequences/isi_16/len120/seq061_len120_s70_isi-1p0_0p0_16p0.json","10.66","true","q1n2reqzmnx","","null","<span style=""font-size: 40px"">+</span>","null","","","","","","","","","",""
"","","","","","audio-button-response","173","407980","0.0-10.0-2.70","https://mcdermottlab.mit.edu/mturk_stimuli/bjmedina/nhs-region-n_80/sequences/isi_16/len120/seq061_len120_s70_isi-1p0_0p0_16p0.json","10.66","true","q1n2reqzmnx","","2360","https://mcdermottlab.mit.edu/mturk_stimuli/bjmedina/nhs-region-n_80/mem_stim_56.wav","3","main","","","false","mem_stim_56.wav","false","-1","","1","correct_rejection"
"","","","","","html-keyboard-response","174","408043","0.0-10.0-1.71","https://mcdermottlab.mit.edu/mturk_stimuli/bjmedina/nhs-region-n_80/sequences/isi_16/len120/seq061_len120_s70_isi-1p0_0p0_16p0.json","10.66","true","q1n2reqzmnx","","null","<span style=""font-size: 40px"">+</span>","null","","","","","","","","","",""
"","","","","","audio-button-response","175","411205","0.0-10.0-2.71","https://mcdermottlab.mit.edu/mturk_stimuli/bjmedina/nhs-region-n_80/sequences/isi_16/len120/seq061_len120_s70_isi-1p0_0p0_16p0.json","10.66","true","q1n2reqzmnx","","2501","https://mcdermottlab.mit.edu/mturk_stimuli/bjmedina/nhs-region-n_80/mem_stim_50.wav","2","main","","","false","mem_stim_50.wav","false","-1","","1","correct_rejection"
"","","","","","html-keyboard-response","176","411260","0.0-10.0-1.72","https://mcdermottlab.mit.edu/mturk_stimuli/bjmedina/nhs-region-n_80/sequences/isi_16/len120/seq061_len120_s70_isi-1p0_0p0_16p0.json","10.66","true","q1n2reqzmnx","","null","<span style=""font-size: 40px"">+</span>","null","","","","","","","","","",""
"","","","","","audio-button-response","177","414693","0.0-10.0-2.72","https://mcdermottlab.mit.edu/mturk_stimuli/bjmedina/nhs-region-n_80/sequences/isi_16/len120/seq061_len120_s70_isi-1p0_0p0_16p0.json","10.66","true","q1n2reqzmnx","","2491","https://mcdermottlab.mit.edu/mturk_stimuli/bjmedina/nhs-region-n_80/mem_stim_19.wav","3","main","","","false","mem_stim_19.wav","false","-1","","1","correct_rejection"
"","","","","","html-keyboard-response","178","414762","0.0-10.0-1.73","https://mcdermottlab.mit.edu/mturk_stimuli/bjmedina/nhs-region-n_80/sequences/isi_16/len120/seq061_len120_s70_isi-1p0_0p0_16p0.json","10.66","true","q1n2reqzmnx","","null","<span style=""font-size: 40px"">+</span>","null","","","","","","","","","",""
"","","","","","audio-button-response","179","418109","0.0-10.0-2.73","https://mcdermottlab.mit.edu/mturk_stimuli/bjmedina/nhs-region-n_80/sequences/isi_16/len120/seq061_len120_s70_isi-1p0_0p0_16p0.json","10.66","true","q1n2reqzmnx","","2491","https://mcdermottlab.mit.edu/mturk_stimuli/bjmedina/nhs-region-n_80/mem_stim_46.wav","1","main","","","false","mem_stim_46.wav","false","-1","","0","false_alarm"
"","","","","","html-keyboard-response","180","418179","0.0-10.0-1.74","https://mcdermottlab.mit.edu/mturk_stimuli/bjmedina/nhs-region-n_80/sequences/isi_16/len120/seq061_len120_s70_isi-1p0_0p0_16p0.json","10.66","true","q1n2reqzmnx","","null","<span style=""font-size: 40px"">+</span>","null","","","","","","","","","",""
"","","","","","audio-button-response","181","421957","0.0-10.0-2.74","https://mcdermottlab.mit.edu/mturk_stimuli/bjmedina/nhs-region-n_80/sequences/isi_16/len120/seq061_len120_s70_isi-1p0_0p0_16p0.json","10.66","true","q1n2reqzmnx","","3341","https://mcdermottlab.mit.edu/mturk_stimuli/bjmedina/nhs-region-n_80/mem_stim_0.wav","1","main","","","false","mem_stim_0.wav","false","-1","","0","false_alarm"
"","","","","","html-keyboard-response","182","422029","0.0-10.0-1.75","https://mcdermottlab.mit.edu/mturk_stimuli/bjmedina/nhs-region-n_80/sequences/isi_16/len120/seq061_len120_s70_isi-1p0_0p0_16p0.json","10.66","true","q1n2reqzmnx","","null","<span style=""font-size: 40px"">+</span>","null","","","","","","","","","",""
"","","","","","audio-button-response","183","424356","0.0-10.0-2.75","https://mcdermottlab.mit.edu/mturk_stimuli/bjmedina/nhs-region-n_80/sequences/isi_16/len120/seq061_len120_s70_isi-1p0_0p0_16p0.json","10.66","true","q1n2reqzmnx","","2331","https://mcdermottlab.mit.edu/mturk_stimuli/bjmedina/nhs-region-n_80/mem_stim_0.wav","3","main","","","true","mem_stim_0.wav","true","0","","0","miss"
"","","","","","html-keyboard-response","184","424411","0.0-10.0-1.76","https://mcdermottlab.mit.edu/mturk_stimuli/bjmedina/nhs-region-n_80/sequences/isi_16/len120/seq061_len120_s70_isi-1p0_0p0_16p0.json","10.66","true","q1n2reqzmnx","","null","<span style=""font-size: 40px"">+</span>","null","","","","","","","","","",""
"","","","","","audio-button-response","185","427445","0.0-10.0-2.76","https://mcdermottlab.mit.edu/mturk_stimuli/bjmedina/nhs-region-n_80/sequences/isi_16/len120/seq061_len120_s70_isi-1p0_0p0_16p0.json","10.66","true","q1n2reqzmnx","","2400","https://mcdermottlab.mit.edu/mturk_stimuli/bjmedina/nhs-region-n_80/mem_stim_36.wav","3","main","","","false","mem_stim_36.wav","false","-1","","1","correct_rejection"
"","","","","","html-keyboard-response","186","427511","0.0-10.0-1.77","https://mcdermottlab.mit.edu/mturk_stimuli/bjmedina/nhs-region-n_80/sequences/isi_16/len120/seq061_len120_s70_isi-1p0_0p0_16p0.json","10.66","true","q1n2reqzmnx","","null","<span style=""font-size: 40px"">+</span>","null","","","","","","","","","",""
"","","","","","audio-button-response","187","429915","0.0-10.0-2.77","https://mcdermottlab.mit.edu/mturk_stimuli/bjmedina/nhs-region-n_80/sequences/isi_16/len120/seq061_len120_s70_isi-1p0_0p0_16p0.json","10.66","true","q1n2reqzmnx","","2411","https://mcdermottlab.mit.edu/mturk_stimuli/bjmedina/nhs-region-n_80/mem_stim_36.wav","3","main","","","true","mem_stim_36.wav","true","0","","0","miss"
"","","","","","html-keyboard-response","188","429979","0.0-10.0-1.78","https://mcdermottlab.mit.edu/mturk_stimuli/bjmedina/nhs-region-n_80/sequences/isi_16/len120/seq061_len120_s70_isi-1p0_0p0_16p0.json","10.66","true","q1n2reqzmnx","","null","<span style=""font-size: 40px"">+</span>","null","","","","","","","","","",""
"","","","","","audio-button-response","189","432414","0.0-10.0-2.78","https://mcdermottlab.mit.edu/mturk_stimuli/bjmedina/nhs-region-n_80/sequences/isi_16/len120/seq061_len120_s70_isi-1p0_0p0_16p0.json","10.66","true","q1n2reqzmnx","","2432","https://mcdermottlab.mit.edu/mturk_stimuli/bjmedina/nhs-region-n_80/mem_stim_79.wav","3","main","","","true","mem_stim_79.wav","false","16","","0","miss"
"","","","","","html-keyboard-response","190","432473","0.0-10.0-1.79","https://mcdermottlab.mit.edu/mturk_stimuli/bjmedina/nhs-region-n_80/sequences/isi_16/len120/seq061_len120_s70_isi-1p0_0p0_16p0.json","10.66","true","q1n2reqzmnx","","null","<span style=""font-size: 40px"">+</span>","null","","","","","","","","","",""
"","","","","","audio-button-response","191","435470","0.0-10.0-2.79","https://mcdermottlab.mit.edu/mturk_stimuli/bjmedina/nhs-region-n_80/sequences/isi_16/len120/seq061_len120_s70_isi-1p0_0p0_16p0.json","10.66","true","q1n2reqzmnx","","2411","https://mcdermottlab.mit.edu/mturk_stimuli/bjmedina/nhs-region-n_80/mem_stim_44.wav","0","main","","","false","mem_stim_44.wav","false","-1","","1","correct_rejection"
"","","","","","html-keyboard-response","192","435529","0.0-10.0-1.80","https://mcdermottlab.mit.edu/mturk_stimuli/bjmedina/nhs-region-n_80/sequences/isi_16/len120/seq061_len120_s70_isi-1p0_0p0_16p0.json","10.66","true","q1n2reqzmnx","","null","<span style=""font-size: 40px"">+</span>","null","","","","","","","","","",""
"","","","","","audio-button-response","193","438516","0.0-10.0-2.80","https://mcdermottlab.mit.edu/mturk_stimuli/bjmedina/nhs-region-n_80/sequences/isi_16/len120/seq061_len120_s70_isi-1p0_0p0_16p0.json","10.66","true","q1n2reqzmnx","","2571","https://mcdermottlab.mit.edu/mturk_stimuli/bjmedina/nhs-region-n_80/mem_stim_14.wav","0","main","","","false","mem_stim_14.wav","false","-1","","1","correct_rejection"
"","","","","","html-keyboard-response","194","438574","0.0-10.0-1.81","https://mcdermottlab.mit.edu/mturk_stimuli/bjmedina/nhs-region-n_80/sequences/isi_16/len120/seq061_len120_s70_isi-1p0_0p0_16p0.json","10.66","true","q1n2reqzmnx","","null","<span style=""font-size: 40px"">+</span>","null","","","","","","","","","",""
"","","","","","audio-button-response","195","442589","0.0-10.0-2.81","https://mcdermottlab.mit.edu/mturk_stimuli/bjmedina/nhs-region-n_80/sequences/isi_16/len120/seq061_len120_s70_isi-1p0_0p0_16p0.json","10.66","true","q1n2reqzmnx","","3069","https://mcdermottlab.mit.edu/mturk_stimuli/bjmedina/nhs-region-n_80/mem_stim_49.wav","1","main","","","false","mem_stim_49.wav","false","-1","","0","false_alarm"
"","","","","","html-keyboard-response","196","442645","0.0-10.0-1.82","https://mcdermottlab.mit.edu/mturk_stimuli/bjmedina/nhs-region-n_80/sequences/isi_16/len120/seq061_len120_s70_isi-1p0_0p0_16p0.json","10.66","true","q1n2reqzmnx","","null","<span style=""font-size: 40px"">+</span>","null","","","","","","","","","",""
"","","","","","audio-button-response","197","445452","0.0-10.0-2.82","https://mcdermottlab.mit.edu/mturk_stimuli/bjmedina/nhs-region-n_80/sequences/isi_16/len120/seq061_len120_s70_isi-1p0_0p0_16p0.json","10.66","true","q1n2reqzmnx","","2800","https://mcdermottlab.mit.edu/mturk_stimuli/bjmedina/nhs-region-n_80/mem_stim_23.wav","3","main","","","true","mem_stim_23.wav","false","16","","0","miss"
"","","","","","html-keyboard-response","198","445512","0.0-10.0-1.83","https://mcdermottlab.mit.edu/mturk_stimuli/bjmedina/nhs-region-n_80/sequences/isi_16/len120/seq061_len120_s70_isi-1p0_0p0_16p0.json","10.66","true","q1n2reqzmnx","","null","<span style=""font-size: 40px"">+</span>","null","","","","","","","","","",""
"","","","","","audio-button-response","199","449053","0.0-10.0-2.83","https://mcdermottlab.mit.edu/mturk_stimuli/bjmedina/nhs-region-n_80/sequences/isi_16/len120/seq061_len120_s70_isi-1p0_0p0_16p0.json","10.66","true","q1n2reqzmnx","","2552","https://mcdermottlab.mit.edu/mturk_stimuli/bjmedina/nhs-region-n_80/mem_stim_33.wav","3","main","","","false","mem_stim_33.wav","false","-1","","1","correct_rejection"
"","","","","","html-keyboard-response","200","449113","0.0-10.0-1.84","https://mcdermottlab.mit.edu/mturk_stimuli/bjmedina/nhs-region-n_80/sequences/isi_16/len120/seq061_len120_s70_isi-1p0_0p0_16p0.json","10.66","true","q1n2reqzmnx","","null","<span style=""font-size: 40px"">+</span>","null","","","","","","","","","",""
"","","","","","audio-button-response","201","451949","0.0-10.0-2.84","https://mcdermottlab.mit.edu/mturk_stimuli/bjmedina/nhs-region-n_80/sequences/isi_16/len120/seq061_len120_s70_isi-1p0_0p0_16p0.json","10.66","true","q1n2reqzmnx","","2411","https://mcdermottlab.mit.edu/mturk_stimuli/bjmedina/nhs-region-n_80/mem_stim_2.wav","0","main","","","false","mem_stim_2.wav","false","-1","","1","correct_rejection"
"","","","","","html-keyboard-response","202","452010","0.0-10.0-1.85","https://mcdermottlab.mit.edu/mturk_stimuli/bjmedina/nhs-region-n_80/sequences/isi_16/len120/seq061_len120_s70_isi-1p0_0p0_16p0.json","10.66","true","q1n2reqzmnx","","null","<span style=""font-size: 40px"">+</span>","null","","","","","","","","","",""
"","","","","","audio-button-response","203","455301","0.0-10.0-2.85","https://mcdermottlab.mit.edu/mturk_stimuli/bjmedina/nhs-region-n_80/sequences/isi_16/len120/seq061_len120_s70_isi-1p0_0p0_16p0.json","10.66","true","q1n2reqzmnx","","2549","https://mcdermottlab.mit.edu/mturk_stimuli/bjmedina/nhs-region-n_80/mem_stim_69.wav","1","main","","","false","mem_stim_69.wav","false","-1","","0","false_alarm"
"","","","","","html-keyboard-response","204","455364","0.0-10.0-1.86","https://mcdermottlab.mit.edu/mturk_stimuli/bjmedina/nhs-region-n_80/sequences/isi_16/len120/seq061_len120_s70_isi-1p0_0p0_16p0.json","10.66","true","q1n2reqzmnx","","null","<span style=""font-size: 40px"">+</span>","null","","","","","","","","","",""
"","","","","","audio-button-response","205","457789","0.0-10.0-2.86","https://mcdermottlab.mit.edu/mturk_stimuli/bjmedina/nhs-region-n_80/sequences/isi_16/len120/seq061_len120_s70_isi-1p0_0p0_16p0.json","10.66","true","q1n2reqzmnx","","2427","https://mcdermottlab.mit.edu/mturk_stimuli/bjmedina/nhs-region-n_80/mem_stim_69.wav","3","main","","","true","mem_stim_69.wav","true","0","","0","miss"
"","","","","","html-keyboard-response","206","457844","0.0-10.0-1.87","https://mcdermottlab.mit.edu/mturk_stimuli/bjmedina/nhs-region-n_80/sequences/isi_16/len120/seq061_len120_s70_isi-1p0_0p0_16p0.json","10.66","true","q1n2reqzmnx","","null","<span style=""font-size: 40px"">+</span>","null","","","","","","","","","",""
"","","","","","audio-button-response","207","460894","0.0-10.0-2.87","https://mcdermottlab.mit.edu/mturk_stimuli/bjmedina/nhs-region-n_80/sequences/isi_16/len120/seq061_len120_s70_isi-1p0_0p0_16p0.json","10.66","true","q1n2reqzmnx","","2400","https://mcdermottlab.mit.edu/mturk_stimuli/bjmedina/nhs-region-n_80/mem_stim_70.wav","3","main","","","false","mem_stim_70.wav","false","-1","","1","correct_rejection"
"","","","","","html-keyboard-response","208","460964","0.0-10.0-1.88","https://mcdermottlab.mit.edu/mturk_stimuli/bjmedina/nhs-region-n_80/sequences/isi_16/len120/seq061_len120_s70_isi-1p0_0p0_16p0.json","10.66","true","q1n2reqzmnx","","null","<span style=""font-size: 40px"">+</span>","null","","","","","","","","","",""
"","","","","","audio-button-response","209","463900","0.0-10.0-2.88","https://mcdermottlab.mit.edu/mturk_stimuli/bjmedina/nhs-region-n_80/sequences/isi_16/len120/seq061_len120_s70_isi-1p0_0p0_16p0.json","10.66","true","q1n2reqzmnx","","2928","https://mcdermottlab.mit.edu/mturk_stimuli/bjmedina/nhs-region-n_80/mem_stim_50.wav","2","main","","","true","mem_stim_50.wav","false","16","","0","miss"
"","","","","","html-keyboard-response","210","463965","0.0-10.0-1.89","https://mcdermottlab.mit.edu/mturk_stimuli/bjmedina/nhs-region-n_80/sequences/isi_16/len120/seq061_len120_s70_isi-1p0_0p0_16p0.json","10.66","true","q1n2reqzmnx","","null","<span style=""font-size: 40px"">+</span>","null","","","","","","","","","",""
"","","","","","audio-button-response","211","467069","0.0-10.0-2.89","https://mcdermottlab.mit.edu/mturk_stimuli/bjmedina/nhs-region-n_80/sequences/isi_16/len120/seq061_len120_s70_isi-1p0_0p0_16p0.json","10.66","true","q1n2reqzmnx","","2459","https://mcdermottlab.mit.edu/mturk_stimuli/bjmedina/nhs-region-n_80/mem_stim_74.wav","2","main","","","false","mem_stim_74.wav","false","-1","","1","correct_rejection"
"","","","","","html-keyboard-response","212","467130","0.0-10.0-1.90","https://mcdermottlab.mit.edu/mturk_stimuli/bjmedina/nhs-region-n_80/sequences/isi_16/len120/seq061_len120_s70_isi-1p0_0p0_16p0.json","10.66","true","q1n2reqzmnx","","null","<span style=""font-size: 40px"">+</span>","null","","","","","","","","","",""
"","","","","","audio-button-response","213","469677","0.0-10.0-2.90","https://mcdermottlab.mit.edu/mturk_stimuli/bjmedina/nhs-region-n_80/sequences/isi_16/len120/seq061_len120_s70_isi-1p0_0p0_16p0.json","10.66","true","q1n2reqzmnx","","2549","https://mcdermottlab.mit.edu/mturk_stimuli/bjmedina/nhs-region-n_80/mem_stim_46.wav","3","main","","","true","mem_stim_46.wav","false","16","","0","miss"
"","","","","","html-keyboard-response","214","469744","0.0-10.0-1.91","https://mcdermottlab.mit.edu/mturk_stimuli/bjmedina/nhs-region-n_80/sequences/isi_16/len120/seq061_len120_s70_isi-1p0_0p0_16p0.json","10.66","true","q1n2reqzmnx","","null","<span style=""font-size: 40px"">+</span>","null","","","","","","","","","",""
"","","","","","audio-button-response","215","473343","0.0-10.0-2.91","https://mcdermottlab.mit.edu/mturk_stimuli/bjmedina/nhs-region-n_80/sequences/isi_16/len120/seq061_len120_s70_isi-1p0_0p0_16p0.json","10.66","true","q1n2reqzmnx","","3000","https://mcdermottlab.mit.edu/mturk_stimuli/bjmedina/nhs-region-n_80/mem_stim_66.wav","1","main","","","false","mem_stim_66.wav","false","-1","","0","false_alarm"
"","","","","","html-keyboard-response","216","473396","0.0-10.0-1.92","https://mcdermottlab.mit.edu/mturk_stimuli/bjmedina/nhs-region-n_80/sequences/isi_16/len120/seq061_len120_s70_isi-1p0_0p0_16p0.json","10.66","true","q1n2reqzmnx","","null","<span style=""font-size: 40px"">+</span>","null","","","","","","","","","",""
"","","","","","audio-button-response","217","476574","0.0-10.0-2.92","https://mcdermottlab.mit.edu/mturk_stimuli/bjmedina/nhs-region-n_80/sequences/isi_16/len120/seq061_len120_s70_isi-1p0_0p0_16p0.json","10.66","true","q1n2reqzmnx","","2771","https://mcdermottlab.mit.edu/mturk_stimuli/bjmedina/nhs-region-n_80/mem_stim_24.wav","0","main","","","false","mem_stim_24.wav","false","-1","","1","correct_rejection"
"","","","","","html-keyboard-response","218","476630","0.0-10.0-1.93","https://mcdermottlab.mit.edu/mturk_stimuli/bjmedina/nhs-region-n_80/sequences/isi_16/len120/seq061_len120_s70_isi-1p0_0p0_16p0.json","10.66","true","q1n2reqzmnx","","null","<span style=""font-size: 40px"">+</span>","null","","","","","","","","","",""
"","","","","","audio-button-response","219","480022","0.0-10.0-2.93","https://mcdermottlab.mit.edu/mturk_stimuli/bjmedina/nhs-region-n_80/sequences/isi_16/len120/seq061_len120_s70_isi-1p0_0p0_16p0.json","10.66","true","q1n2reqzmnx","","2448","https://mcdermottlab.mit.edu/mturk_stimuli/bjmedina/nhs-region-n_80/mem_stim_78.wav","2","main","","","false","mem_stim_78.wav","false","-1","","1","correct_rejection"
"","","","","","html-keyboard-response","220","480081","0.0-10.0-1.94","https://mcdermottlab.mit.edu/mturk_stimuli/bjmedina/nhs-region-n_80/sequences/isi_16/len120/seq061_len120_s70_isi-1p0_0p0_16p0.json","10.66","true","q1n2reqzmnx","","null","<span style=""font-size: 40px"">+</span>","null","","","","","","","","","",""
"","","","","","audio-button-response","221","483414","0.0-10.0-2.94","https://mcdermottlab.mit.edu/mturk_stimuli/bjmedina/nhs-region-n_80/sequences/isi_16/len120/seq061_len120_s70_isi-1p0_0p0_16p0.json","10.66","true","q1n2reqzmnx","","2451","https://mcdermottlab.mit.edu/mturk_stimuli/bjmedina/nhs-region-n_80/mem_stim_35.wav","3","main","","","false","mem_stim_35.wav","false","-1","","1","correct_rejection"
"","","","","","html-keyboard-response","222","483481","0.0-10.0-1.95","https://mcdermottlab.mit.edu/mturk_stimuli/bjmedina/nhs-region-n_80/sequences/isi_16/len120/seq061_len120_s70_isi-1p0_0p0_16p0.json","10.66","true","q1n2reqzmnx","","null","<span style=""font-size: 40px"">+</span>","null","","","","","","","","","",""
"","","","","","audio-button-response","223","487558","0.0-10.0-2.95","https://mcdermottlab.mit.edu/mturk_stimuli/bjmedina/nhs-region-n_80/sequences/isi_16/len120/seq061_len120_s70_isi-1p0_0p0_16p0.json","10.66","true","q1n2reqzmnx","","2949","https://mcdermottlab.mit.edu/mturk_stimuli/bjmedina/nhs-region-n_80/mem_stim_52.wav","1","main","","","false","mem_stim_52.wav","false","-1","","0","false_alarm"
"","","","","","html-keyboard-response","224","487613","0.0-10.0-1.96","https://mcdermottlab.mit.edu/mturk_stimuli/bjmedina/nhs-region-n_80/sequences/isi_16/len120/seq061_len120_s70_isi-1p0_0p0_16p0.json","10.66","true","q1n2reqzmnx","","null","<span style=""font-size: 40px"">+</span>","null","","","","","","","","","",""
"","","","","","audio-button-response","225","490453","0.0-10.0-2.96","https://mcdermottlab.mit.edu/mturk_stimuli/bjmedina/nhs-region-n_80/sequences/isi_16/len120/seq061_len120_s70_isi-1p0_0p0_16p0.json","10.66","true","q1n2reqzmnx","","2840","https://mcdermottlab.mit.edu/mturk_stimuli/bjmedina/nhs-region-n_80/mem_stim_44.wav","2","main","","","true","mem_stim_44.wav","false","16","","0","miss"
"","","","","","html-keyboard-response","226","490515","0.0-10.0-1.97","https://mcdermottlab.mit.edu/mturk_stimuli/bjmedina/nhs-region-n_80/sequences/isi_16/len120/seq061_len120_s70_isi-1p0_0p0_16p0.json","10.66","true","q1n2reqzmnx","","null","<span style=""font-size: 40px"">+</span>","null","","","","","","","","","",""
"","","","","","audio-button-response","227","493998","0.0-10.0-2.97","https://mcdermottlab.mit.edu/mturk_stimuli/bjmedina/nhs-region-n_80/sequences/isi_16/len120/seq061_len120_s70_isi-1p0_0p0_16p0.json","10.66","true","q1n2reqzmnx","","2451","https://mcdermottlab.mit.edu/mturk_stimuli/bjmedina/nhs-region-n_80/mem_stim_26.wav","2","main","","","false","mem_stim_26.wav","false","-1","","1","correct_rejection"
"","","","","","html-keyboard-response","228","494054","0.0-10.0-1.98","https://mcdermottlab.mit.edu/mturk_stimuli/bjmedina/nhs-region-n_80/sequences/isi_16/len120/seq061_len120_s70_isi-1p0_0p0_16p0.json","10.66","true","q1n2reqzmnx","","null","<span style=""font-size: 40px"">+</span>","null","","","","","","","","","",""
"","","","","","audio-button-response","229","497733","0.0-10.0-2.98","https://mcdermottlab.mit.edu/mturk_stimuli/bjmedina/nhs-region-n_80/sequences/isi_16/len120/seq061_len120_s70_isi-1p0_0p0_16p0.json","10.66","true","q1n2reqzmnx","","3240","https://mcdermottlab.mit.edu/mturk_stimuli/bjmedina/nhs-region-n_80/mem_stim_25.wav","1","main","","","false","mem_stim_25.wav","false","-1","","0","false_alarm"
"","","","","","html-keyboard-response","230","497795","0.0-10.0-1.99","https://mcdermottlab.mit.edu/mturk_stimuli/bjmedina/nhs-region-n_80/sequences/isi_16/len120/seq061_len120_s70_isi-1p0_0p0_16p0.json","10.66","true","q1n2reqzmnx","","null","<span style=""font-size: 40px"">+</span>","null","","","","","","","","","",""
"","","","","","audio-button-response","231","500958","0.0-10.0-2.99","https://mcdermottlab.mit.edu/mturk_stimuli/bjmedina/nhs-region-n_80/sequences/isi_16/len120/seq061_len120_s70_isi-1p0_0p0_16p0.json","10.66","true","q1n2reqzmnx","","2440","https://mcdermottlab.mit.edu/mturk_stimuli/bjmedina/nhs-region-n_80/mem_stim_12.wav","2","main","","","false","mem_stim_12.wav","false","-1","","1","correct_rejection"
"","","","","","html-keyboard-response","232","501013","0.0-10.0-1.100","https://mcdermottlab.mit.edu/mturk_stimuli/bjmedina/nhs-region-n_80/sequences/isi_16/len120/seq061_len120_s70_isi-1p0_0p0_16p0.json","10.66","true","q1n2reqzmnx","","null","<span style=""font-size: 40px"">+</span>","null","","","","","","","","","",""
"","","","","","audio-button-response","233","503436","0.0-10.0-2.100","https://mcdermottlab.mit.edu/mturk_stimuli/bjmedina/nhs-region-n_80/sequences/isi_16/len120/seq061_len120_s70_isi-1p0_0p0_16p0.json","10.66","true","q1n2reqzmnx","","2429","https://mcdermottlab.mit.edu/mturk_stimuli/bjmedina/nhs-region-n_80/mem_stim_33.wav","3","main","","","true","mem_stim_33.wav","false","16","","0","miss"
"","","","","","html-keyboard-response","234","503495","0.0-10.0-1.101","https://mcdermottlab.mit.edu/mturk_stimuli/bjmedina/nhs-region-n_80/sequences/isi_16/len120/seq061_len120_s70_isi-1p0_0p0_16p0.json","10.66","true","q1n2reqzmnx","","null","<span style=""font-size: 40px"">+</span>","null","","","","","","","","","",""
"","","","","","audio-button-response","235","507215","0.0-10.0-2.101","https://mcdermottlab.mit.edu/mturk_stimuli/bjmedina/nhs-region-n_80/sequences/isi_16/len120/seq061_len120_s70_isi-1p0_0p0_16p0.json","10.66","true","q1n2reqzmnx","","3080","https://mcdermottlab.mit.edu/mturk_stimuli/bjmedina/nhs-region-n_80/mem_stim_62.wav","0","main","","","false","mem_stim_62.wav","false","-1","","1","correct_rejection"
"","","","","","html-keyboard-response","236","507279","0.0-10.0-1.102","https://mcdermottlab.mit.edu/mturk_stimuli/bjmedina/nhs-region-n_80/sequences/isi_16/len120/seq061_len120_s70_isi-1p0_0p0_16p0.json","10.66","true","q1n2reqzmnx","","null","<span style=""font-size: 40px"">+</span>","null","","","","","","","","","",""
"","","","","","audio-button-response","237","510582","0.0-10.0-2.102","https://mcdermottlab.mit.edu/mturk_stimuli/bjmedina/nhs-region-n_80/sequences/isi_16/len120/seq061_len120_s70_isi-1p0_0p0_16p0.json","10.66","true","q1n2reqzmnx","","2379","https://mcdermottlab.mit.edu/mturk_stimuli/bjmedina/nhs-region-n_80/mem_stim_7.wav","2","main","","","false","mem_stim_7.wav","false","-1","","1","correct_rejection"
"","","","","","html-keyboard-response","238","510645","0.0-10.0-1.103","https://mcdermottlab.mit.edu/mturk_stimuli/bjmedina/nhs-region-n_80/sequences/isi_16/len120/seq061_len120_s70_isi-1p0_0p0_16p0.json","10.66","true","q1n2reqzmnx","","null","<span style=""font-size: 40px"">+</span>","null","","","","","","","","","",""
"","","","","","audio-button-response","239","514301","0.0-10.0-2.103","https://mcdermottlab.mit.edu/mturk_stimuli/bjmedina/nhs-region-n_80/sequences/isi_16/len120/seq061_len120_s70_isi-1p0_0p0_16p0.json","10.66","true","q1n2reqzmnx","","2920","https://mcdermottlab.mit.edu/mturk_stimuli/bjmedina/nhs-region-n_80/mem_stim_9.wav","2","main","","","false","mem_stim_9.wav","false","-1","","1","correct_rejection"
"","","","","","html-keyboard-response","240","514364","0.0-10.0-1.104","https://mcdermottlab.mit.edu/mturk_stimuli/bjmedina/nhs-region-n_80/sequences/isi_16/len120/seq061_len120_s70_isi-1p0_0p0_16p0.json","10.66","true","q1n2reqzmnx","","null","<span style=""font-size: 40px"">+</span>","null","","","","","","","","","",""
"","","","","","audio-button-response","241","516943","0.0-10.0-2.104","https://mcdermottlab.mit.edu/mturk_stimuli/bjmedina/nhs-region-n_80/sequences/isi_16/len120/seq061_len120_s70_isi-1p0_0p0_16p0.json","10.66","true","q1n2reqzmnx","","2579","https://mcdermottlab.mit.edu/mturk_stimuli/bjmedina/nhs-region-n_80/mem_stim_70.wav","3","main","","","true","mem_stim_70.wav","false","16","","0","miss"
"","","","","","html-keyboard-response","242","516998","0.0-10.0-1.105","https://mcdermottlab.mit.edu/mturk_stimuli/bjmedina/nhs-region-n_80/sequences/isi_16/len120/seq061_len120_s70_isi-1p0_0p0_16p0.json","10.66","true","q1n2reqzmnx","","null","<span style=""font-size: 40px"">+</span>","null","","","","","","","","","",""
"","","","","","audio-button-response","243","520958","0.0-10.0-2.105","https://mcdermottlab.mit.edu/mturk_stimuli/bjmedina/nhs-region-n_80/sequences/isi_16/len120/seq061_len120_s70_isi-1p0_0p0_16p0.json","10.66","true","q1n2reqzmnx","","3309","https://mcdermottlab.mit.edu/mturk_stimuli/bjmedina/nhs-region-n_80/mem_stim_30.wav","0","main","","","false","mem_stim_30.wav","false","-1","","1","correct_rejection"
"","","","","","html-keyboard-response","244","521014","0.0-10.0-1.106","https://mcdermottlab.mit.edu/mturk_stimuli/bjmedina/nhs-region-n_80/sequences/isi_16/len120/seq061_len120_s70_isi-1p0_0p0_16p0.json","10.66","true","q1n2reqzmnx","","null","<span style=""font-size: 40px"">+</span>","null","","","","","","","","","",""
"","","","","","audio-button-response","245","523445","0.0-10.0-2.106","https://mcdermottlab.mit.edu/mturk_stimuli/bjmedina/nhs-region-n_80/sequences/isi_16/len120/seq061_len120_s70_isi-1p0_0p0_16p0.json","10.66","true","q1n2reqzmnx","","2429","https://mcdermottlab.mit.edu/mturk_stimuli/bjmedina/nhs-region-n_80/mem_stim_74.wav","3","main","","","true","mem_stim_74.wav","false","16","","0","miss"
"","","","","","html-keyboard-response","246","523515","0.0-10.0-1.107","https://mcdermottlab.mit.edu/mturk_stimuli/bjmedina/nhs-region-n_80/sequences/isi_16/len120/seq061_len120_s70_isi-1p0_0p0_16p0.json","10.66","true","q1n2reqzmnx","","null","<span style=""font-size: 40px"">+</span>","null","","","","","","","","","",""
"","","","","","audio-button-response","247","526590","0.0-10.0-2.107","https://mcdermottlab.mit.edu/mturk_stimuli/bjmedina/nhs-region-n_80/sequences/isi_16/len120/seq061_len120_s70_isi-1p0_0p0_16p0.json","10.66","true","q1n2reqzmnx","","2491","https://mcdermottlab.mit.edu/mturk_stimuli/bjmedina/nhs-region-n_80/mem_stim_48.wav","1","main","","","false","mem_stim_48.wav","false","-1","","0","false_alarm"
"","","","","","html-keyboard-response","248","526649","0.0-10.0-1.108","https://mcdermottlab.mit.edu/mturk_stimuli/bjmedina/nhs-region-n_80/sequences/isi_16/len120/seq061_len120_s70_isi-1p0_0p0_16p0.json","10.66","true","q1n2reqzmnx","","null","<span style=""font-size: 40px"">+</span>","null","","","","","","","","","",""
"","","","","","audio-button-response","249","530038","0.0-10.0-2.108","https://mcdermottlab.mit.edu/mturk_stimuli/bjmedina/nhs-region-n_80/sequences/isi_16/len120/seq061_len120_s70_isi-1p0_0p0_16p0.json","10.66","true","q1n2reqzmnx","","3389","https://mcdermottlab.mit.edu/mturk_stimuli/bjmedina/nhs-region-n_80/mem_stim_66.wav","2","main","","","true","mem_stim_66.wav","false","16","","0","miss"
"","","","","","html-keyboard-response","250","530099","0.0-10.0-1.109","https://mcdermottlab.mit.edu/mturk_stimuli/bjmedina/nhs-region-n_80/sequences/isi_16/len120/seq061_len120_s70_isi-1p0_0p0_16p0.json","10.66","true","q1n2reqzmnx","","null","<span style=""font-size: 40px"">+</span>","null","","","","","","","","","",""
"","","","","","audio-button-response","251","533382","0.0-10.0-2.109","https://mcdermottlab.mit.edu/mturk_stimuli/bjmedina/nhs-region-n_80/sequences/isi_16/len120/seq061_len120_s70_isi-1p0_0p0_16p0.json","10.66","true","q1n2reqzmnx","","2829","https://mcdermottlab.mit.edu/mturk_stimuli/bjmedina/nhs-region-n_80/mem_stim_64.wav","2","main","","","false","mem_stim_64.wav","false","-1","","1","correct_rejection"
"","","","","","html-keyboard-response","252","533449","0.0-10.0-1.110","https://mcdermottlab.mit.edu/mturk_stimuli/bjmedina/nhs-region-n_80/sequences/isi_16/len120/seq061_len120_s70_isi-1p0_0p0_16p0.json","10.66","true","q1n2reqzmnx","","null","<span style=""font-size: 40px"">+</span>","null","","","","","","","","","",""
"","","","","","audio-button-response","253","537023","0.0-10.0-2.110","https://mcdermottlab.mit.edu/mturk_stimuli/bjmedina/nhs-region-n_80/sequences/isi_16/len120/seq061_len120_s70_isi-1p0_0p0_16p0.json","10.66","true","q1n2reqzmnx","","3568","https://mcdermottlab.mit.edu/mturk_stimuli/bjmedina/nhs-region-n_80/mem_stim_78.wav","2","main","","","true","mem_stim_78.wav","false","16","","0","miss"
"","","","","","html-keyboard-response","254","537083","0.0-10.0-1.111","https://mcdermottlab.mit.edu/mturk_stimuli/bjmedina/nhs-region-n_80/sequences/isi_16/len120/seq061_len120_s70_isi-1p0_0p0_16p0.json","10.66","true","q1n2reqzmnx","","null","<span style=""font-size: 40px"">+</span>","null","","","","","","","","","",""
"","","","","","audio-button-response","255","540567","0.0-10.0-2.111","https://mcdermottlab.mit.edu/mturk_stimuli/bjmedina/nhs-region-n_80/sequences/isi_16/len120/seq061_len120_s70_isi-1p0_0p0_16p0.json","10.66","true","q1n2reqzmnx","","2872","https://mcdermottlab.mit.edu/mturk_stimuli/bjmedina/nhs-region-n_80/mem_stim_13.wav","1","main","","","false","mem_stim_13.wav","false","-1","","0","false_alarm"
"","","","","","html-keyboard-response","256","540634","0.0-10.0-1.112","https://mcdermottlab.mit.edu/mturk_stimuli/bjmedina/nhs-region-n_80/sequences/isi_16/len120/seq061_len120_s70_isi-1p0_0p0_16p0.json","10.66","true","q1n2reqzmnx","","null","<span style=""font-size: 40px"">+</span>","null","","","","","","","","","",""
"","","","","","audio-button-response","257","544518","0.0-10.0-2.112","https://mcdermottlab.mit.edu/mturk_stimuli/bjmedina/nhs-region-n_80/sequences/isi_16/len120/seq061_len120_s70_isi-1p0_0p0_16p0.json","10.66","true","q1n2reqzmnx","","2960","https://mcdermottlab.mit.edu/mturk_stimuli/bjmedina/nhs-region-n_80/mem_stim_28.wav","1","main","","","false","mem_stim_28.wav","false","-1","","0","false_alarm"
"","","","","","html-keyboard-response","258","544583","0.0-10.0-1.113","https://mcdermottlab.mit.edu/mturk_stimuli/bjmedina/nhs-region-n_80/sequences/isi_16/len120/seq061_len120_s70_isi-1p0_0p0_16p0.json","10.66","true","q1n2reqzmnx","","null","<span style=""font-size: 40px"">+</span>","null","","","","","","","","","",""
"","","","","","audio-button-response","259","547607","0.0-10.0-2.113","https://mcdermottlab.mit.edu/mturk_stimuli/bjmedina/nhs-region-n_80/sequences/isi_16/len120/seq061_len120_s70_isi-1p0_0p0_16p0.json","10.66","true","q1n2reqzmnx","","2621","https://mcdermottlab.mit.edu/mturk_stimuli/bjmedina/nhs-region-n_80/mem_stim_57.wav","1","main","","","false","mem_stim_57.wav","false","-1","","0","false_alarm"
"","","","","","html-keyboard-response","260","547666","0.0-10.0-1.114","https://mcdermottlab.mit.edu/mturk_stimuli/bjmedina/nhs-region-n_80/sequences/isi_16/len120/seq061_len120_s70_isi-1p0_0p0_16p0.json","10.66","true","q1n2reqzmnx","","null","<span style=""font-size: 40px"">+</span>","null","","","","","","","","","",""
"","","","","","audio-button-response","261","550142","0.0-10.0-2.114","https://mcdermottlab.mit.edu/mturk_stimuli/bjmedina/nhs-region-n_80/sequences/isi_16/len120/seq061_len120_s70_isi-1p0_0p0_16p0.json","10.66","true","q1n2reqzmnx","","2480","https://mcdermottlab.mit.edu/mturk_stimuli/bjmedina/nhs-region-n_80/mem_stim_26.wav","3","main","","","true","mem_stim_26.wav","false","16","","0","miss"
"","","","","","html-keyboard-response","262","550198","0.0-10.0-1.115","https://mcdermottlab.mit.edu/mturk_stimuli/bjmedina/nhs-region-n_80/sequences/isi_16/len120/seq061_len120_s70_isi-1p0_0p0_16p0.json","10.66","true","q1n2reqzmnx","","null","<span style=""font-size: 40px"">+</span>","null","","","","","","","","","",""
"","","","","","audio-button-response","263","552663","0.0-10.0-2.115","https://mcdermottlab.mit.edu/mturk_stimuli/bjmedina/nhs-region-n_80/sequences/isi_16/len120/seq061_len120_s70_isi-1p0_0p0_16p0.json","10.66","true","q1n2reqzmnx","","2459","https://mcdermottlab.mit.edu/mturk_stimuli/bjmedina/nhs-region-n_80/mem_stim_25.wav","3","main","","","true","mem_stim_25.wav","false","16","","0","miss"
"","","","","","html-keyboard-response","264","552733","0.0-10.0-1.116","https://mcdermottlab.mit.edu/mturk_stimuli/bjmedina/nhs-region-n_80/sequences/isi_16/len120/seq061_len120_s70_isi-1p0_0p0_16p0.json","10.66","true","q1n2reqzmnx","","null","<span style=""font-size: 40px"">+</span>","null","","","","","","","","","",""
"","","","","","audio-button-response","265","555431","0.0-10.0-2.116","https://mcdermottlab.mit.edu/mturk_stimuli/bjmedina/nhs-region-n_80/sequences/isi_16/len120/seq061_len120_s70_isi-1p0_0p0_16p0.json","10.66","true","q1n2reqzmnx","","2699","https://mcdermottlab.mit.edu/mturk_stimuli/bjmedina/nhs-region-n_80/mem_stim_12.wav","2","main","","","true","mem_stim_12.wav","false","16","","0","miss"
"","","","","","html-keyboard-response","266","555500","0.0-10.0-1.117","https://mcdermottlab.mit.edu/mturk_stimuli/bjmedina/nhs-region-n_80/sequences/isi_16/len120/seq061_len120_s70_isi-1p0_0p0_16p0.json","10.66","true","q1n2reqzmnx","","null","<span style=""font-size: 40px"">+</span>","null","","","","","","","","","",""
"","","","","","audio-button-response","267","559096","0.0-10.0-2.117","https://mcdermottlab.mit.edu/mturk_stimuli/bjmedina/nhs-region-n_80/sequences/isi_16/len120/seq061_len120_s70_isi-1p0_0p0_16p0.json","10.66","true","q1n2reqzmnx","","2952","https://mcdermottlab.mit.edu/mturk_stimuli/bjmedina/nhs-region-n_80/mem_stim_59.wav","3","main","","","false","mem_stim_59.wav","false","-1","","1","correct_rejection"
"","","","","","html-keyboard-response","268","559166","0.0-10.0-1.118","https://mcdermottlab.mit.edu/mturk_stimuli/bjmedina/nhs-region-n_80/sequences/isi_16/len120/seq061_len120_s70_isi-1p0_0p0_16p0.json","10.66","true","q1n2reqzmnx","","null","<span style=""font-size: 40px"">+</span>","null","","","","","","","","","",""
"","","","","","audio-button-response","269","561592","0.0-10.0-2.118","https://mcdermottlab.mit.edu/mturk_stimuli/bjmedina/nhs-region-n_80/sequences/isi_16/len120/seq061_len120_s70_isi-1p0_0p0_16p0.json","10.66","true","q1n2reqzmnx","","2419","https://mcdermottlab.mit.edu/mturk_stimuli/bjmedina/nhs-region-n_80/mem_stim_62.wav","3","main","","","true","mem_stim_62.wav","false","16","","0","miss"
"","","","","","html-keyboard-response","270","561650","0.0-10.0-1.119","https://mcdermottlab.mit.edu/mturk_stimuli/bjmedina/nhs-region-n_80/sequences/isi_16/len120/seq061_len120_s70_isi-1p0_0p0_16p0.json","10.66","true","q1n2reqzmnx","","null","<span style=""font-size: 40px"">+</span>","null","","","","","","","","","",""
"","","","","","audio-button-response","271","564712","0.0-10.0-2.119","https://mcdermottlab.mit.edu/mturk_stimuli/bjmedina/nhs-region-n_80/sequences/isi_16/len120/seq061_len120_s70_isi-1p0_0p0_16p0.json","10.66","true","q1n2reqzmnx","","2440","https://mcdermottlab.mit.edu/mturk_stimuli/bjmedina/nhs-region-n_80/mem_stim_31.wav","0","main","","","false","mem_stim_31.wav","false","-1","","1","correct_rejection"
"","","","","","survey-text","272","611089","0.0-11.0","https://mcdermottlab.mit.edu/mturk_stimuli/bjmedina/nhs-region-n_80/sequences/isi_16/len120/seq061_len120_s70_isi-1p0_0p0_16p0.json","10.66","true","q1n2reqzmnx","","46369","","{""Q0"":""I liked the interface, it was modern, simple, clean and easy to read, and the buttons were easy to press. ""}","","","","","","","","","",""
