"success","timeout","failed_images","failed_audio","failed_video","trial_type","trial_index","time_elapsed","internal_node_id","sequence_file","pay","passed_hc","completion_code","view_history","rt","stimulus","response","stim_type","hc_answer","correct_hc","repeat","yt_id","catch","isi","type","is_correct","response_type"
"true","false","[]","[]","[]","preload","0","19","0.0-0.0","https://mcdermottlab.mit.edu/mturk_stimuli/bjmedina/nhs-region-n_80/sequences/isi_16/len120/seq004_len120_s70_isi-1p0_0p0_16p0.json","11.129999999999999","true","ybctqv5sw90","","","","","","","","","","","","","",""
"","","","","","instructions","1","2617","0.0-1.0","https://mcdermottlab.mit.edu/mturk_stimuli/bjmedina/nhs-region-n_80/sequences/isi_16/len120/seq004_len120_s70_isi-1p0_0p0_16p0.json","11.129999999999999","true","ybctqv5sw90","[{""page_index"":0,""viewing_time"":2597}]","2597","","","","","","","","","","","",""
"","","","","","instructions","2","3388","0.0-2.0","https://mcdermottlab.mit.edu/mturk_stimuli/bjmedina/nhs-region-n_80/sequences/isi_16/len120/seq004_len120_s70_isi-1p0_0p0_16p0.json","11.129999999999999","true","ybctqv5sw90","[{""page_index"":0,""viewing_time"":771}]","771","","","","","","","","","","","",""
"","","","","","audio-button-response","3","7670","0.0-3.0-0.0","https://mcdermottlab.mit.edu/mturk_stimuli/bjmedina/nhs-region-n_80/sequences/isi_16/len120/seq004_len120_s70_isi-1p0_0p0_16p0.json","11.129999999999999","true","ybctqv5sw90","","4272","https://mcdermottlab.mit.edu/bjmedina/experiments/mem_exp_v01/assets/noise_calib_stim.wav","1","","","","","","","","","",""
"","","","","","instructions","4","8655","0.0-4.0","https://mcdermottlab.mit.edu/mturk_stimuli/bjmedina/nhs-region-n_80/sequences/isi_16/len120/seq004_len120_s70_isi-1p0_0p0_16p0.json","11.129999999999999","true","ybctqv5sw90","[{""page_index"":0,""viewing_time"":985}]","985","","","","","","","","","","","",""
"","","","","","audio-button-response","5","13677","0.0-5.0-0.0","https://mcdermottlab.mit.edu/mturk_stimuli/bjmedina/nhs-region-n_80/sequences/isi_16/len120/seq004_len120_s70_isi-1p0_0p0_16p0.json","11.129999999999999","true","ybctqv5sw90","","4360","https://mcdermottlab.mit.edu/bjmedina/experiments/mem_exp_v01/assets/antiphase_HC_IOS.wav","2","hc","3","1","","","","","","",""
"","","","","","audio-button-response","6","18432","0.0-5.0-0.1","https://mcdermottlab.mit.edu/mturk_stimuli/bjmedina/nhs-region-n_80/sequences/isi_16/len120/seq004_len120_s70_isi-1p0_0p0_16p0.json","11.129999999999999","true","ybctqv5sw90","","4291","https://mcdermottlab.mit.edu/bjmedina/experiments/mem_exp_v01/assets/antiphase_HC_SIO.wav","0","hc","1","1","","","","","","",""
"","","","","","audio-button-response","7","23105","0.0-5.0-0.2","https://mcdermottlab.mit.edu/mturk_stimuli/bjmedina/nhs-region-n_80/sequences/isi_16/len120/seq004_len120_s70_isi-1p0_0p0_16p0.json","11.129999999999999","true","ybctqv5sw90","","4200","https://mcdermottlab.mit.edu/bjmedina/experiments/mem_exp_v01/assets/antiphase_HC_ISO.wav","1","hc","2","1","","","","","","",""
"","","","","","audio-button-response","8","27731","0.0-5.0-0.3","https://mcdermottlab.mit.edu/mturk_stimuli/bjmedina/nhs-region-n_80/sequences/isi_16/len120/seq004_len120_s70_isi-1p0_0p0_16p0.json","11.129999999999999","true","ybctqv5sw90","","4160","https://mcdermottlab.mit.edu/bjmedina/experiments/mem_exp_v01/assets/antiphase_HC_OSI.wav","1","hc","2","1","","","","","","",""
"","","","","","audio-button-response","9","32408","0.0-5.0-0.4","https://mcdermottlab.mit.edu/mturk_stimuli/bjmedina/nhs-region-n_80/sequences/isi_16/len120/seq004_len120_s70_isi-1p0_0p0_16p0.json","11.129999999999999","true","ybctqv5sw90","","4208","https://mcdermottlab.mit.edu/bjmedina/experiments/mem_exp_v01/assets/antiphase_HC_OIS.wav","2","hc","3","1","","","","","","",""
"","","","","","audio-button-response","10","37124","0.0-5.0-0.5","https://mcdermottlab.mit.edu/mturk_stimuli/bjmedina/nhs-region-n_80/sequences/isi_16/len120/seq004_len120_s70_isi-1p0_0p0_16p0.json","11.129999999999999","true","ybctqv5sw90","","4259","https://mcdermottlab.mit.edu/bjmedina/experiments/mem_exp_v01/assets/antiphase_HC_SOI.wav","0","hc","1","1","","","","","","",""
"","","","","","html-keyboard-response","11","38490","0.0-6.0","https://mcdermottlab.mit.edu/mturk_stimuli/bjmedina/nhs-region-n_80/sequences/isi_16/len120/seq004_len120_s70_isi-1p0_0p0_16p0.json","11.129999999999999","true","ybctqv5sw90","","1365","<h1>You have finished the LOUDNESS task!</h1> <p>Press space to continue</p>"," ","","","","","","","","","",""
"","","","","","instructions","12","44790","0.0-7.0","https://mcdermottlab.mit.edu/mturk_stimuli/bjmedina/nhs-region-n_80/sequences/isi_16/len120/seq004_len120_s70_isi-1p0_0p0_16p0.json","11.129999999999999","true","ybctqv5sw90","[{""page_index"":0,""viewing_time"":1270},{""page_index"":1,""viewing_time"":1987},{""page_index"":2,""viewing_time"":1523},{""page_index"":3,""viewing_time"":1519}]","6300","","","","","","","","","","","",""
"","","","","","html-keyboard-response","13","44857","0.0-8.0-0.0","https://mcdermottlab.mit.edu/mturk_stimuli/bjmedina/nhs-region-n_80/sequences/isi_16/len120/seq004_len120_s70_isi-1p0_0p0_16p0.json","11.129999999999999","true","ybctqv5sw90","","null","<span style=""font-size: 40px"">+</span>","null","fixation","","","","","","","","",""
"","","","","","audio-button-response","14","47876","0.0-8.0-1.0","https://mcdermottlab.mit.edu/mturk_stimuli/bjmedina/nhs-region-n_80/sequences/isi_16/len120/seq004_len120_s70_isi-1p0_0p0_16p0.json","11.129999999999999","true","ybctqv5sw90","","2272","https://mcdermottlab.mit.edu/mturk_stimuli/bjmedina/mem_exp_v05/mem_stim_1023_f32.wav","0","demo","","","0","","","","","",""
"","","","","","html-keyboard-response","15","47935","0.0-8.0-0.1","https://mcdermottlab.mit.edu/mturk_stimuli/bjmedina/nhs-region-n_80/sequences/isi_16/len120/seq004_len120_s70_isi-1p0_0p0_16p0.json","11.129999999999999","true","ybctqv5sw90","","null","<span style=""font-size: 40px"">+</span>","null","fixation","","","","","","","","",""
"","","","","","audio-button-response","16","50615","0.0-8.0-1.1","https://mcdermottlab.mit.edu/mturk_stimuli/bjmedina/nhs-region-n_80/sequences/isi_16/len120/seq004_len120_s70_isi-1p0_0p0_16p0.json","11.129999999999999","true","ybctqv5sw90","","2131","https://mcdermottlab.mit.edu/mturk_stimuli/bjmedina/mem_exp_v05/mem_stim_1022_f32.wav","0","demo","","","0","","","","","",""
"","","","","","html-keyboard-response","17","50671","0.0-8.0-0.2","https://mcdermottlab.mit.edu/mturk_stimuli/bjmedina/nhs-region-n_80/sequences/isi_16/len120/seq004_len120_s70_isi-1p0_0p0_16p0.json","11.129999999999999","true","ybctqv5sw90","","null","<span style=""font-size: 40px"">+</span>","null","fixation","","","","","","","","",""
"","","","","","audio-button-response","18","52770","0.0-8.0-1.2","https://mcdermottlab.mit.edu/mturk_stimuli/bjmedina/nhs-region-n_80/sequences/isi_16/len120/seq004_len120_s70_isi-1p0_0p0_16p0.json","11.129999999999999","true","ybctqv5sw90","","2099","https://mcdermottlab.mit.edu/mturk_stimuli/bjmedina/mem_exp_v05/mem_stim_1022_f32.wav","3","demo","","","1","","","","","",""
"","","","","","html-keyboard-response","19","52830","0.0-8.0-0.3","https://mcdermottlab.mit.edu/mturk_stimuli/bjmedina/nhs-region-n_80/sequences/isi_16/len120/seq004_len120_s70_isi-1p0_0p0_16p0.json","11.129999999999999","true","ybctqv5sw90","","null","<span style=""font-size: 40px"">+</span>","null","fixation","","","","","","","","",""
"","","","","","audio-button-response","20","55624","0.0-8.0-1.3","https://mcdermottlab.mit.edu/mturk_stimuli/bjmedina/nhs-region-n_80/sequences/isi_16/len120/seq004_len120_s70_isi-1p0_0p0_16p0.json","11.129999999999999","true","ybctqv5sw90","","2251","https://mcdermottlab.mit.edu/mturk_stimuli/bjmedina/mem_exp_v05/mem_stim_1021_f32.wav","2","demo","","","0","","","","","",""
"","","","","","html-keyboard-response","21","55684","0.0-8.0-0.4","https://mcdermottlab.mit.edu/mturk_stimuli/bjmedina/nhs-region-n_80/sequences/isi_16/len120/seq004_len120_s70_isi-1p0_0p0_16p0.json","11.129999999999999","true","ybctqv5sw90","","null","<span style=""font-size: 40px"">+</span>","null","fixation","","","","","","","","",""
"","","","","","audio-button-response","22","57751","0.0-8.0-1.4","https://mcdermottlab.mit.edu/mturk_stimuli/bjmedina/nhs-region-n_80/sequences/isi_16/len120/seq004_len120_s70_isi-1p0_0p0_16p0.json","11.129999999999999","true","ybctqv5sw90","","2072","https://mcdermottlab.mit.edu/mturk_stimuli/bjmedina/mem_exp_v05/mem_stim_1023_f32.wav","2","demo","","","1","","","","","",""
"","","","","","html-keyboard-response","23","57809","0.0-8.0-0.5","https://mcdermottlab.mit.edu/mturk_stimuli/bjmedina/nhs-region-n_80/sequences/isi_16/len120/seq004_len120_s70_isi-1p0_0p0_16p0.json","11.129999999999999","true","ybctqv5sw90","","null","<span style=""font-size: 40px"">+</span>","null","fixation","","","","","","","","",""
"","","","","","audio-button-response","24","60319","0.0-8.0-1.5","https://mcdermottlab.mit.edu/mturk_stimuli/bjmedina/nhs-region-n_80/sequences/isi_16/len120/seq004_len120_s70_isi-1p0_0p0_16p0.json","11.129999999999999","true","ybctqv5sw90","","2051","https://mcdermottlab.mit.edu/mturk_stimuli/bjmedina/mem_exp_v05/mem_stim_1020_f32.wav","0","demo","","","0","","","","","",""
"","","","","","html-keyboard-response","25","60372","0.0-8.0-0.6","https://mcdermottlab.mit.edu/mturk_stimuli/bjmedina/nhs-region-n_80/sequences/isi_16/len120/seq004_len120_s70_isi-1p0_0p0_16p0.json","11.129999999999999","true","ybctqv5sw90","","null","<span style=""font-size: 40px"">+</span>","null","fixation","","","","","","","","",""
"","","","","","audio-button-response","26","63066","0.0-8.0-1.6","https://mcdermottlab.mit.edu/mturk_stimuli/bjmedina/nhs-region-n_80/sequences/isi_16/len120/seq004_len120_s70_isi-1p0_0p0_16p0.json","11.129999999999999","true","ybctqv5sw90","","2141","https://mcdermottlab.mit.edu/mturk_stimuli/bjmedina/mem_exp_v05/mem_stim_1019_f32.wav","0","demo","","","0","","","","","",""
"","","","","","html-keyboard-response","27","63123","0.0-8.0-0.7","https://mcdermottlab.mit.edu/mturk_stimuli/bjmedina/nhs-region-n_80/sequences/isi_16/len120/seq004_len120_s70_isi-1p0_0p0_16p0.json","11.129999999999999","true","ybctqv5sw90","","null","<span style=""font-size: 40px"">+</span>","null","fixation","","","","","","","","",""
"","","","","","audio-button-response","28","65345","0.0-8.0-1.7","https://mcdermottlab.mit.edu/mturk_stimuli/bjmedina/nhs-region-n_80/sequences/isi_16/len120/seq004_len120_s70_isi-1p0_0p0_16p0.json","11.129999999999999","true","ybctqv5sw90","","2221","https://mcdermottlab.mit.edu/mturk_stimuli/bjmedina/mem_exp_v05/mem_stim_1021_f32.wav","2","demo","","","1","","","","","",""
"","","","","","html-keyboard-response","29","66128","0.0-9.0","https://mcdermottlab.mit.edu/mturk_stimuli/bjmedina/nhs-region-n_80/sequences/isi_16/len120/seq004_len120_s70_isi-1p0_0p0_16p0.json","11.129999999999999","true","ybctqv5sw90","","782","<p>You are now ready to start the experiment. Press SPACE when you are ready to start.</p>"," ","","","","","","","","","",""
"","","","","","html-keyboard-response","30","66182","0.0-10.0-1.0","https://mcdermottlab.mit.edu/mturk_stimuli/bjmedina/nhs-region-n_80/sequences/isi_16/len120/seq004_len120_s70_isi-1p0_0p0_16p0.json","11.129999999999999","true","ybctqv5sw90","","null","<span style=""font-size: 40px"">+</span>","null","","","","","","","","","",""
"","","","","","audio-button-response","31","69053","0.0-10.0-2.0","https://mcdermottlab.mit.edu/mturk_stimuli/bjmedina/nhs-region-n_80/sequences/isi_16/len120/seq004_len120_s70_isi-1p0_0p0_16p0.json","11.129999999999999","true","ybctqv5sw90","","2291","https://mcdermottlab.mit.edu/mturk_stimuli/bjmedina/nhs-region-n_80/mem_stim_70.wav","0","main","","","false","mem_stim_70.wav","false","-1","","1","correct_rejection"
"","","","","","html-keyboard-response","32","69108","0.0-10.0-1.1","https://mcdermottlab.mit.edu/mturk_stimuli/bjmedina/nhs-region-n_80/sequences/isi_16/len120/seq004_len120_s70_isi-1p0_0p0_16p0.json","11.129999999999999","true","ybctqv5sw90","","null","<span style=""font-size: 40px"">+</span>","null","","","","","","","","","",""
"","","","","","audio-button-response","33","71936","0.0-10.0-2.1","https://mcdermottlab.mit.edu/mturk_stimuli/bjmedina/nhs-region-n_80/sequences/isi_16/len120/seq004_len120_s70_isi-1p0_0p0_16p0.json","11.129999999999999","true","ybctqv5sw90","","2291","https://mcdermottlab.mit.edu/mturk_stimuli/bjmedina/nhs-region-n_80/mem_stim_67.wav","0","main","","","false","mem_stim_67.wav","false","-1","","1","correct_rejection"
"","","","","","html-keyboard-response","34","71996","0.0-10.0-1.2","https://mcdermottlab.mit.edu/mturk_stimuli/bjmedina/nhs-region-n_80/sequences/isi_16/len120/seq004_len120_s70_isi-1p0_0p0_16p0.json","11.129999999999999","true","ybctqv5sw90","","null","<span style=""font-size: 40px"">+</span>","null","","","","","","","","","",""
"","","","","","audio-button-response","35","75035","0.0-10.0-2.2","https://mcdermottlab.mit.edu/mturk_stimuli/bjmedina/nhs-region-n_80/sequences/isi_16/len120/seq004_len120_s70_isi-1p0_0p0_16p0.json","11.129999999999999","true","ybctqv5sw90","","2651","https://mcdermottlab.mit.edu/mturk_stimuli/bjmedina/nhs-region-n_80/mem_stim_13.wav","0","main","","","false","mem_stim_13.wav","false","-1","","1","correct_rejection"
"","","","","","html-keyboard-response","36","75099","0.0-10.0-1.3","https://mcdermottlab.mit.edu/mturk_stimuli/bjmedina/nhs-region-n_80/sequences/isi_16/len120/seq004_len120_s70_isi-1p0_0p0_16p0.json","11.129999999999999","true","ybctqv5sw90","","null","<span style=""font-size: 40px"">+</span>","null","","","","","","","","","",""
"","","","","","audio-button-response","37","77394","0.0-10.0-2.3","https://mcdermottlab.mit.edu/mturk_stimuli/bjmedina/nhs-region-n_80/sequences/isi_16/len120/seq004_len120_s70_isi-1p0_0p0_16p0.json","11.129999999999999","true","ybctqv5sw90","","2291","https://mcdermottlab.mit.edu/mturk_stimuli/bjmedina/nhs-region-n_80/mem_stim_13.wav","3","main","","","true","mem_stim_13.wav","true","0","","0","miss"
"","","","","","html-keyboard-response","38","77451","0.0-10.0-1.4","https://mcdermottlab.mit.edu/mturk_stimuli/bjmedina/nhs-region-n_80/sequences/isi_16/len120/seq004_len120_s70_isi-1p0_0p0_16p0.json","11.129999999999999","true","ybctqv5sw90","","null","<span style=""font-size: 40px"">+</span>","null","","","","","","","","","",""
"","","","","","audio-button-response","39","80425","0.0-10.0-2.4","https://mcdermottlab.mit.edu/mturk_stimuli/bjmedina/nhs-region-n_80/sequences/isi_16/len120/seq004_len120_s70_isi-1p0_0p0_16p0.json","11.129999999999999","true","ybctqv5sw90","","2531","https://mcdermottlab.mit.edu/mturk_stimuli/bjmedina/nhs-region-n_80/mem_stim_31.wav","0","main","","","false","mem_stim_31.wav","false","-1","","1","correct_rejection"
"","","","","","html-keyboard-response","40","80481","0.0-10.0-1.5","https://mcdermottlab.mit.edu/mturk_stimuli/bjmedina/nhs-region-n_80/sequences/isi_16/len120/seq004_len120_s70_isi-1p0_0p0_16p0.json","11.129999999999999","true","ybctqv5sw90","","null","<span style=""font-size: 40px"">+</span>","null","","","","","","","","","",""
"","","","","","audio-button-response","41","83810","0.0-10.0-2.5","https://mcdermottlab.mit.edu/mturk_stimuli/bjmedina/nhs-region-n_80/sequences/isi_16/len120/seq004_len120_s70_isi-1p0_0p0_16p0.json","11.129999999999999","true","ybctqv5sw90","","2949","https://mcdermottlab.mit.edu/mturk_stimuli/bjmedina/nhs-region-n_80/mem_stim_56.wav","1","main","","","false","mem_stim_56.wav","false","-1","","0","false_alarm"
"","","","","","html-keyboard-response","42","83867","0.0-10.0-1.6","https://mcdermottlab.mit.edu/mturk_stimuli/bjmedina/nhs-region-n_80/sequences/isi_16/len120/seq004_len120_s70_isi-1p0_0p0_16p0.json","11.129999999999999","true","ybctqv5sw90","","null","<span style=""font-size: 40px"">+</span>","null","","","","","","","","","",""
"","","","","","audio-button-response","43","86581","0.0-10.0-2.6","https://mcdermottlab.mit.edu/mturk_stimuli/bjmedina/nhs-region-n_80/sequences/isi_16/len120/seq004_len120_s70_isi-1p0_0p0_16p0.json","11.129999999999999","true","ybctqv5sw90","","2331","https://mcdermottlab.mit.edu/mturk_stimuli/bjmedina/nhs-region-n_80/mem_stim_22.wav","0","main","","","false","mem_stim_22.wav","false","-1","","1","correct_rejection"
"","","","","","html-keyboard-response","44","86646","0.0-10.0-1.7","https://mcdermottlab.mit.edu/mturk_stimuli/bjmedina/nhs-region-n_80/sequences/isi_16/len120/seq004_len120_s70_isi-1p0_0p0_16p0.json","11.129999999999999","true","ybctqv5sw90","","null","<span style=""font-size: 40px"">+</span>","null","","","","","","","","","",""
"","","","","","audio-button-response","45","89153","0.0-10.0-2.7","https://mcdermottlab.mit.edu/mturk_stimuli/bjmedina/nhs-region-n_80/sequences/isi_16/len120/seq004_len120_s70_isi-1p0_0p0_16p0.json","11.129999999999999","true","ybctqv5sw90","","2131","https://mcdermottlab.mit.edu/mturk_stimuli/bjmedina/nhs-region-n_80/mem_stim_58.wav","0","main","","","false","mem_stim_58.wav","false","-1","","1","correct_rejection"
"","","","","","html-keyboard-response","46","89214","0.0-10.0-1.8","https://mcdermottlab.mit.edu/mturk_stimuli/bjmedina/nhs-region-n_80/sequences/isi_16/len120/seq004_len120_s70_isi-1p0_0p0_16p0.json","11.129999999999999","true","ybctqv5sw90","","null","<span style=""font-size: 40px"">+</span>","null","","","","","","","","","",""
"","","","","","audio-button-response","47","91228","0.0-10.0-2.8","https://mcdermottlab.mit.edu/mturk_stimuli/bjmedina/nhs-region-n_80/sequences/isi_16/len120/seq004_len120_s70_isi-1p0_0p0_16p0.json","11.129999999999999","true","ybctqv5sw90","","2011","https://mcdermottlab.mit.edu/mturk_stimuli/bjmedina/nhs-region-n_80/mem_stim_58.wav","3","main","","","true","mem_stim_58.wav","true","0","","0","miss"
"","","","","","html-keyboard-response","48","91287","0.0-10.0-1.9","https://mcdermottlab.mit.edu/mturk_stimuli/bjmedina/nhs-region-n_80/sequences/isi_16/len120/seq004_len120_s70_isi-1p0_0p0_16p0.json","11.129999999999999","true","ybctqv5sw90","","null","<span style=""font-size: 40px"">+</span>","null","","","","","","","","","",""
"","","","","","audio-button-response","49","93971","0.0-10.0-2.9","https://mcdermottlab.mit.edu/mturk_stimuli/bjmedina/nhs-region-n_80/sequences/isi_16/len120/seq004_len120_s70_isi-1p0_0p0_16p0.json","11.129999999999999","true","ybctqv5sw90","","2309","https://mcdermottlab.mit.edu/mturk_stimuli/bjmedina/nhs-region-n_80/mem_stim_14.wav","0","main","","","false","mem_stim_14.wav","false","-1","","1","correct_rejection"
"","","","","","html-keyboard-response","50","94039","0.0-10.0-1.10","https://mcdermottlab.mit.edu/mturk_stimuli/bjmedina/nhs-region-n_80/sequences/isi_16/len120/seq004_len120_s70_isi-1p0_0p0_16p0.json","11.129999999999999","true","ybctqv5sw90","","null","<span style=""font-size: 40px"">+</span>","null","","","","","","","","","",""
"","","","","","audio-button-response","51","96663","0.0-10.0-2.10","https://mcdermottlab.mit.edu/mturk_stimuli/bjmedina/nhs-region-n_80/sequences/isi_16/len120/seq004_len120_s70_isi-1p0_0p0_16p0.json","11.129999999999999","true","ybctqv5sw90","","2240","https://mcdermottlab.mit.edu/mturk_stimuli/bjmedina/nhs-region-n_80/mem_stim_73.wav","0","main","","","false","mem_stim_73.wav","false","-1","","1","correct_rejection"
"","","","","","html-keyboard-response","52","96730","0.0-10.0-1.11","https://mcdermottlab.mit.edu/mturk_stimuli/bjmedina/nhs-region-n_80/sequences/isi_16/len120/seq004_len120_s70_isi-1p0_0p0_16p0.json","11.129999999999999","true","ybctqv5sw90","","null","<span style=""font-size: 40px"">+</span>","null","","","","","","","","","",""
"","","","","","audio-button-response","53","99214","0.0-10.0-2.11","https://mcdermottlab.mit.edu/mturk_stimuli/bjmedina/nhs-region-n_80/sequences/isi_16/len120/seq004_len120_s70_isi-1p0_0p0_16p0.json","11.129999999999999","true","ybctqv5sw90","","2091","https://mcdermottlab.mit.edu/mturk_stimuli/bjmedina/nhs-region-n_80/mem_stim_62.wav","0","main","","","false","mem_stim_62.wav","false","-1","","1","correct_rejection"
"","","","","","html-keyboard-response","54","99270","0.0-10.0-1.12","https://mcdermottlab.mit.edu/mturk_stimuli/bjmedina/nhs-region-n_80/sequences/isi_16/len120/seq004_len120_s70_isi-1p0_0p0_16p0.json","11.129999999999999","true","ybctqv5sw90","","null","<span style=""font-size: 40px"">+</span>","null","","","","","","","","","",""
"","","","","","audio-button-response","55","102774","0.0-10.0-2.12","https://mcdermottlab.mit.edu/mturk_stimuli/bjmedina/nhs-region-n_80/sequences/isi_16/len120/seq004_len120_s70_isi-1p0_0p0_16p0.json","11.129999999999999","true","ybctqv5sw90","","3120","https://mcdermottlab.mit.edu/mturk_stimuli/bjmedina/nhs-region-n_80/mem_stim_33.wav","1","main","","","false","mem_stim_33.wav","false","-1","","0","false_alarm"
"","","","","","html-keyboard-response","56","102836","0.0-10.0-1.13","https://mcdermottlab.mit.edu/mturk_stimuli/bjmedina/nhs-region-n_80/sequences/isi_16/len120/seq004_len120_s70_isi-1p0_0p0_16p0.json","11.129999999999999","true","ybctqv5sw90","","null","<span style=""font-size: 40px"">+</span>","null","","","","","","","","","",""
"","","","","","audio-button-response","57","105511","0.0-10.0-2.13","https://mcdermottlab.mit.edu/mturk_stimuli/bjmedina/nhs-region-n_80/sequences/isi_16/len120/seq004_len120_s70_isi-1p0_0p0_16p0.json","11.129999999999999","true","ybctqv5sw90","","2291","https://mcdermottlab.mit.edu/mturk_stimuli/bjmedina/nhs-region-n_80/mem_stim_69.wav","0","main","","","false","mem_stim_69.wav","false","-1","","1","correct_rejection"
"","","","","","html-keyboard-response","58","105573","0.0-10.0-1.14","https://mcdermottlab.mit.edu/mturk_stimuli/bjmedina/nhs-region-n_80/sequences/isi_16/len120/seq004_len120_s70_isi-1p0_0p0_16p0.json","11.129999999999999","true","ybctqv5sw90","","null","<span style=""font-size: 40px"">+</span>","null","","","","","","","","","",""
"","","","","","audio-button-response","59","108235","0.0-10.0-2.14","https://mcdermottlab.mit.edu/mturk_stimuli/bjmedina/nhs-region-n_80/sequences/isi_16/len120/seq004_len120_s70_isi-1p0_0p0_16p0.json","11.129999999999999","true","ybctqv5sw90","","2280","https://mcdermottlab.mit.edu/mturk_stimuli/bjmedina/nhs-region-n_80/mem_stim_78.wav","0","main","","","false","mem_stim_78.wav","false","-1","","1","correct_rejection"
"","","","","","html-keyboard-response","60","108298","0.0-10.0-1.15","https://mcdermottlab.mit.edu/mturk_stimuli/bjmedina/nhs-region-n_80/sequences/isi_16/len120/seq004_len120_s70_isi-1p0_0p0_16p0.json","11.129999999999999","true","ybctqv5sw90","","null","<span style=""font-size: 40px"">+</span>","null","","","","","","","","","",""
"","","","","","audio-button-response","61","111004","0.0-10.0-2.15","https://mcdermottlab.mit.edu/mturk_stimuli/bjmedina/nhs-region-n_80/sequences/isi_16/len120/seq004_len120_s70_isi-1p0_0p0_16p0.json","11.129999999999999","true","ybctqv5sw90","","2320","https://mcdermottlab.mit.edu/mturk_stimuli/bjmedina/nhs-region-n_80/mem_stim_57.wav","2","main","","","false","mem_stim_57.wav","false","-1","","1","correct_rejection"
"","","","","","html-keyboard-response","62","111062","0.0-10.0-1.16","https://mcdermottlab.mit.edu/mturk_stimuli/bjmedina/nhs-region-n_80/sequences/isi_16/len120/seq004_len120_s70_isi-1p0_0p0_16p0.json","11.129999999999999","true","ybctqv5sw90","","null","<span style=""font-size: 40px"">+</span>","null","","","","","","","","","",""
"","","","","","audio-button-response","63","113347","0.0-10.0-2.16","https://mcdermottlab.mit.edu/mturk_stimuli/bjmedina/nhs-region-n_80/sequences/isi_16/len120/seq004_len120_s70_isi-1p0_0p0_16p0.json","11.129999999999999","true","ybctqv5sw90","","2280","https://mcdermottlab.mit.edu/mturk_stimuli/bjmedina/nhs-region-n_80/mem_stim_57.wav","3","main","","","true","mem_stim_57.wav","true","0","","0","miss"
"","","","","","html-keyboard-response","64","113404","0.0-10.0-1.17","https://mcdermottlab.mit.edu/mturk_stimuli/bjmedina/nhs-region-n_80/sequences/isi_16/len120/seq004_len120_s70_isi-1p0_0p0_16p0.json","11.129999999999999","true","ybctqv5sw90","","null","<span style=""font-size: 40px"">+</span>","null","","","","","","","","","",""
"","","","","","audio-button-response","65","116018","0.0-10.0-2.17","https://mcdermottlab.mit.edu/mturk_stimuli/bjmedina/nhs-region-n_80/sequences/isi_16/len120/seq004_len120_s70_isi-1p0_0p0_16p0.json","11.129999999999999","true","ybctqv5sw90","","2611","https://mcdermottlab.mit.edu/mturk_stimuli/bjmedina/nhs-region-n_80/mem_stim_70.wav","2","main","","","true","mem_stim_70.wav","false","16","","0","miss"
"","","","","","html-keyboard-response","66","116072","0.0-10.0-1.18","https://mcdermottlab.mit.edu/mturk_stimuli/bjmedina/nhs-region-n_80/sequences/isi_16/len120/seq004_len120_s70_isi-1p0_0p0_16p0.json","11.129999999999999","true","ybctqv5sw90","","null","<span style=""font-size: 40px"">+</span>","null","","","","","","","","","",""
"","","","","","audio-button-response","67","118908","0.0-10.0-2.18","https://mcdermottlab.mit.edu/mturk_stimuli/bjmedina/nhs-region-n_80/sequences/isi_16/len120/seq004_len120_s70_isi-1p0_0p0_16p0.json","11.129999999999999","true","ybctqv5sw90","","2400","https://mcdermottlab.mit.edu/mturk_stimuli/bjmedina/nhs-region-n_80/mem_stim_0.wav","0","main","","","false","mem_stim_0.wav","false","-1","","1","correct_rejection"
"","","","","","html-keyboard-response","68","118978","0.0-10.0-1.19","https://mcdermottlab.mit.edu/mturk_stimuli/bjmedina/nhs-region-n_80/sequences/isi_16/len120/seq004_len120_s70_isi-1p0_0p0_16p0.json","11.129999999999999","true","ybctqv5sw90","","null","<span style=""font-size: 40px"">+</span>","null","","","","","","","","","",""
"","","","","","audio-button-response","69","121641","0.0-10.0-2.19","https://mcdermottlab.mit.edu/mturk_stimuli/bjmedina/nhs-region-n_80/sequences/isi_16/len120/seq004_len120_s70_isi-1p0_0p0_16p0.json","11.129999999999999","true","ybctqv5sw90","","2280","https://mcdermottlab.mit.edu/mturk_stimuli/bjmedina/nhs-region-n_80/mem_stim_45.wav","0","main","","","false","mem_stim_45.wav","false","-1","","1","correct_rejection"
"","","","","","html-keyboard-response","70","121704","0.0-10.0-1.20","https://mcdermottlab.mit.edu/mturk_stimuli/bjmedina/nhs-region-n_80/sequences/isi_16/len120/seq004_len120_s70_isi-1p0_0p0_16p0.json","11.129999999999999","true","ybctqv5sw90","","null","<span style=""font-size: 40px"">+</span>","null","","","","","","","","","",""
"","","","","","audio-button-response","71","124425","0.0-10.0-2.20","https://mcdermottlab.mit.edu/mturk_stimuli/bjmedina/nhs-region-n_80/sequences/isi_16/len120/seq004_len120_s70_isi-1p0_0p0_16p0.json","11.129999999999999","true","ybctqv5sw90","","2341","https://mcdermottlab.mit.edu/mturk_stimuli/bjmedina/nhs-region-n_80/mem_stim_30.wav","0","main","","","false","mem_stim_30.wav","false","-1","","1","correct_rejection"
"","","","","","html-keyboard-response","72","124494","0.0-10.0-1.21","https://mcdermottlab.mit.edu/mturk_stimuli/bjmedina/nhs-region-n_80/sequences/isi_16/len120/seq004_len120_s70_isi-1p0_0p0_16p0.json","11.129999999999999","true","ybctqv5sw90","","null","<span style=""font-size: 40px"">+</span>","null","","","","","","","","","",""
"","","","","","audio-button-response","73","127336","0.0-10.0-2.21","https://mcdermottlab.mit.edu/mturk_stimuli/bjmedina/nhs-region-n_80/sequences/isi_16/len120/seq004_len120_s70_isi-1p0_0p0_16p0.json","11.129999999999999","true","ybctqv5sw90","","2451","https://mcdermottlab.mit.edu/mturk_stimuli/bjmedina/nhs-region-n_80/mem_stim_20.wav","1","main","","","false","mem_stim_20.wav","false","-1","","0","false_alarm"
"","","","","","html-keyboard-response","74","127391","0.0-10.0-1.22","https://mcdermottlab.mit.edu/mturk_stimuli/bjmedina/nhs-region-n_80/sequences/isi_16/len120/seq004_len120_s70_isi-1p0_0p0_16p0.json","11.129999999999999","true","ybctqv5sw90","","null","<span style=""font-size: 40px"">+</span>","null","","","","","","","","","",""
"","","","","","audio-button-response","75","130020","0.0-10.0-2.22","https://mcdermottlab.mit.edu/mturk_stimuli/bjmedina/nhs-region-n_80/sequences/isi_16/len120/seq004_len120_s70_isi-1p0_0p0_16p0.json","11.129999999999999","true","ybctqv5sw90","","2251","https://mcdermottlab.mit.edu/mturk_stimuli/bjmedina/nhs-region-n_80/mem_stim_25.wav","0","main","","","false","mem_stim_25.wav","false","-1","","1","correct_rejection"
"","","","","","html-keyboard-response","76","130087","0.0-10.0-1.23","https://mcdermottlab.mit.edu/mturk_stimuli/bjmedina/nhs-region-n_80/sequences/isi_16/len120/seq004_len120_s70_isi-1p0_0p0_16p0.json","11.129999999999999","true","ybctqv5sw90","","null","<span style=""font-size: 40px"">+</span>","null","","","","","","","","","",""
"","","","","","audio-button-response","77","132800","0.0-10.0-2.23","https://mcdermottlab.mit.edu/mturk_stimuli/bjmedina/nhs-region-n_80/sequences/isi_16/len120/seq004_len120_s70_isi-1p0_0p0_16p0.json","11.129999999999999","true","ybctqv5sw90","","2339","https://mcdermottlab.mit.edu/mturk_stimuli/bjmedina/nhs-region-n_80/mem_stim_15.wav","2","main","","","false","mem_stim_15.wav","false","-1","","1","correct_rejection"
"","","","","","html-keyboard-response","78","132867","0.0-10.0-1.24","https://mcdermottlab.mit.edu/mturk_stimuli/bjmedina/nhs-region-n_80/sequences/isi_16/len120/seq004_len120_s70_isi-1p0_0p0_16p0.json","11.129999999999999","true","ybctqv5sw90","","null","<span style=""font-size: 40px"">+</span>","null","","","","","","","","","",""
"","","","","","audio-button-response","79","135191","0.0-10.0-2.24","https://mcdermottlab.mit.edu/mturk_stimuli/bjmedina/nhs-region-n_80/sequences/isi_16/len120/seq004_len120_s70_isi-1p0_0p0_16p0.json","11.129999999999999","true","ybctqv5sw90","","2331","https://mcdermottlab.mit.edu/mturk_stimuli/bjmedina/nhs-region-n_80/mem_stim_15.wav","3","main","","","true","mem_stim_15.wav","true","0","","0","miss"
"","","","","","html-keyboard-response","80","135248","0.0-10.0-1.25","https://mcdermottlab.mit.edu/mturk_stimuli/bjmedina/nhs-region-n_80/sequences/isi_16/len120/seq004_len120_s70_isi-1p0_0p0_16p0.json","11.129999999999999","true","ybctqv5sw90","","null","<span style=""font-size: 40px"">+</span>","null","","","","","","","","","",""
"","","","","","audio-button-response","81","137989","0.0-10.0-2.25","https://mcdermottlab.mit.edu/mturk_stimuli/bjmedina/nhs-region-n_80/sequences/isi_16/len120/seq004_len120_s70_isi-1p0_0p0_16p0.json","11.129999999999999","true","ybctqv5sw90","","2301","https://mcdermottlab.mit.edu/mturk_stimuli/bjmedina/nhs-region-n_80/mem_stim_66.wav","0","main","","","false","mem_stim_66.wav","false","-1","","1","correct_rejection"
"","","","","","html-keyboard-response","82","138056","0.0-10.0-1.26","https://mcdermottlab.mit.edu/mturk_stimuli/bjmedina/nhs-region-n_80/sequences/isi_16/len120/seq004_len120_s70_isi-1p0_0p0_16p0.json","11.129999999999999","true","ybctqv5sw90","","null","<span style=""font-size: 40px"">+</span>","null","","","","","","","","","",""
"","","","","","audio-button-response","83","140726","0.0-10.0-2.26","https://mcdermottlab.mit.edu/mturk_stimuli/bjmedina/nhs-region-n_80/sequences/isi_16/len120/seq004_len120_s70_isi-1p0_0p0_16p0.json","11.129999999999999","true","ybctqv5sw90","","2288","https://mcdermottlab.mit.edu/mturk_stimuli/bjmedina/nhs-region-n_80/mem_stim_51.wav","0","main","","","false","mem_stim_51.wav","false","-1","","1","correct_rejection"
"","","","","","html-keyboard-response","84","140794","0.0-10.0-1.27","https://mcdermottlab.mit.edu/mturk_stimuli/bjmedina/nhs-region-n_80/sequences/isi_16/len120/seq004_len120_s70_isi-1p0_0p0_16p0.json","11.129999999999999","true","ybctqv5sw90","","null","<span style=""font-size: 40px"">+</span>","null","","","","","","","","","",""
"","","","","","audio-button-response","85","143130","0.0-10.0-2.27","https://mcdermottlab.mit.edu/mturk_stimuli/bjmedina/nhs-region-n_80/sequences/isi_16/len120/seq004_len120_s70_isi-1p0_0p0_16p0.json","11.129999999999999","true","ybctqv5sw90","","2339","https://mcdermottlab.mit.edu/mturk_stimuli/bjmedina/nhs-region-n_80/mem_stim_73.wav","0","main","","","true","mem_stim_73.wav","false","16","","0","miss"
"","","","","","html-keyboard-response","86","143196","0.0-10.0-1.28","https://mcdermottlab.mit.edu/mturk_stimuli/bjmedina/nhs-region-n_80/sequences/isi_16/len120/seq004_len120_s70_isi-1p0_0p0_16p0.json","11.129999999999999","true","ybctqv5sw90","","null","<span style=""font-size: 40px"">+</span>","null","","","","","","","","","",""
"","","","","","audio-button-response","87","145493","0.0-10.0-2.28","https://mcdermottlab.mit.edu/mturk_stimuli/bjmedina/nhs-region-n_80/sequences/isi_16/len120/seq004_len120_s70_isi-1p0_0p0_16p0.json","11.129999999999999","true","ybctqv5sw90","","2299","https://mcdermottlab.mit.edu/mturk_stimuli/bjmedina/nhs-region-n_80/mem_stim_62.wav","2","main","","","true","mem_stim_62.wav","false","16","","0","miss"
"","","","","","html-keyboard-response","88","145551","0.0-10.0-1.29","https://mcdermottlab.mit.edu/mturk_stimuli/bjmedina/nhs-region-n_80/sequences/isi_16/len120/seq004_len120_s70_isi-1p0_0p0_16p0.json","11.129999999999999","true","ybctqv5sw90","","null","<span style=""font-size: 40px"">+</span>","null","","","","","","","","","",""
"","","","","","audio-button-response","89","148311","0.0-10.0-2.29","https://mcdermottlab.mit.edu/mturk_stimuli/bjmedina/nhs-region-n_80/sequences/isi_16/len120/seq004_len120_s70_isi-1p0_0p0_16p0.json","11.129999999999999","true","ybctqv5sw90","","2331","https://mcdermottlab.mit.edu/mturk_stimuli/bjmedina/nhs-region-n_80/mem_stim_50.wav","0","main","","","false","mem_stim_50.wav","false","-1","","1","correct_rejection"
"","","","","","html-keyboard-response","90","148375","0.0-10.0-1.30","https://mcdermottlab.mit.edu/mturk_stimuli/bjmedina/nhs-region-n_80/sequences/isi_16/len120/seq004_len120_s70_isi-1p0_0p0_16p0.json","11.129999999999999","true","ybctqv5sw90","","null","<span style=""font-size: 40px"">+</span>","null","","","","","","","","","",""
"","","","","","audio-button-response","91","150734","0.0-10.0-2.30","https://mcdermottlab.mit.edu/mturk_stimuli/bjmedina/nhs-region-n_80/sequences/isi_16/len120/seq004_len120_s70_isi-1p0_0p0_16p0.json","11.129999999999999","true","ybctqv5sw90","","2360","https://mcdermottlab.mit.edu/mturk_stimuli/bjmedina/nhs-region-n_80/mem_stim_69.wav","2","main","","","true","mem_stim_69.wav","false","16","","0","miss"
"","","","","","html-keyboard-response","92","150793","0.0-10.0-1.31","https://mcdermottlab.mit.edu/mturk_stimuli/bjmedina/nhs-region-n_80/sequences/isi_16/len120/seq004_len120_s70_isi-1p0_0p0_16p0.json","11.129999999999999","true","ybctqv5sw90","","null","<span style=""font-size: 40px"">+</span>","null","","","","","","","","","",""
"","","","","","audio-button-response","93","153133","0.0-10.0-2.31","https://mcdermottlab.mit.edu/mturk_stimuli/bjmedina/nhs-region-n_80/sequences/isi_16/len120/seq004_len120_s70_isi-1p0_0p0_16p0.json","11.129999999999999","true","ybctqv5sw90","","2339","https://mcdermottlab.mit.edu/mturk_stimuli/bjmedina/nhs-region-n_80/mem_stim_78.wav","3","main","","","true","mem_stim_78.wav","false","16","","0","miss"
"","","","","","html-keyboard-response","94","153194","0.0-10.0-1.32","https://mcdermottlab.mit.edu/mturk_stimuli/bjmedina/nhs-region-n_80/sequences/isi_16/len120/seq004_len120_s70_isi-1p0_0p0_16p0.json","11.129999999999999","true","ybctqv5sw90","","null","<span style=""font-size: 40px"">+</span>","null","","","","","","","","","",""
"","","","","","audio-button-response","95","155901","0.0-10.0-2.32","https://mcdermottlab.mit.edu/mturk_stimuli/bjmedina/nhs-region-n_80/sequences/isi_16/len120/seq004_len120_s70_isi-1p0_0p0_16p0.json","11.129999999999999","true","ybctqv5sw90","","2331","https://mcdermottlab.mit.edu/mturk_stimuli/bjmedina/nhs-region-n_80/mem_stim_10.wav","0","main","","","false","mem_stim_10.wav","false","-1","","1","correct_rejection"
"","","","","","html-keyboard-response","96","155971","0.0-10.0-1.33","https://mcdermottlab.mit.edu/mturk_stimuli/bjmedina/nhs-region-n_80/sequences/isi_16/len120/seq004_len120_s70_isi-1p0_0p0_16p0.json","11.129999999999999","true","ybctqv5sw90","","null","<span style=""font-size: 40px"">+</span>","null","","","","","","","","","",""
"","","","","","audio-button-response","97","158660","0.0-10.0-2.33","https://mcdermottlab.mit.edu/mturk_stimuli/bjmedina/nhs-region-n_80/sequences/isi_16/len120/seq004_len120_s70_isi-1p0_0p0_16p0.json","11.129999999999999","true","ybctqv5sw90","","2309","https://mcdermottlab.mit.edu/mturk_stimuli/bjmedina/nhs-region-n_80/mem_stim_12.wav","0","main","","","false","mem_stim_12.wav","false","-1","","1","correct_rejection"
"","","","","","html-keyboard-response","98","158729","0.0-10.0-1.34","https://mcdermottlab.mit.edu/mturk_stimuli/bjmedina/nhs-region-n_80/sequences/isi_16/len120/seq004_len120_s70_isi-1p0_0p0_16p0.json","11.129999999999999","true","ybctqv5sw90","","null","<span style=""font-size: 40px"">+</span>","null","","","","","","","","","",""
"","","","","","audio-button-response","99","163292","0.0-10.0-2.34","https://mcdermottlab.mit.edu/mturk_stimuli/bjmedina/nhs-region-n_80/sequences/isi_16/len120/seq004_len120_s70_isi-1p0_0p0_16p0.json","11.129999999999999","true","ybctqv5sw90","","4179","https://mcdermottlab.mit.edu/mturk_stimuli/bjmedina/nhs-region-n_80/mem_stim_76.wav","0","main","","","false","mem_stim_76.wav","false","-1","","1","correct_rejection"
"","","","","","html-keyboard-response","100","163361","0.0-10.0-1.35","https://mcdermottlab.mit.edu/mturk_stimuli/bjmedina/nhs-region-n_80/sequences/isi_16/len120/seq004_len120_s70_isi-1p0_0p0_16p0.json","11.129999999999999","true","ybctqv5sw90","","null","<span style=""font-size: 40px"">+</span>","null","","","","","","","","","",""
"","","","","","audio-button-response","101","166000","0.0-10.0-2.35","https://mcdermottlab.mit.edu/mturk_stimuli/bjmedina/nhs-region-n_80/sequences/isi_16/len120/seq004_len120_s70_isi-1p0_0p0_16p0.json","11.129999999999999","true","ybctqv5sw90","","2640","https://mcdermottlab.mit.edu/mturk_stimuli/bjmedina/nhs-region-n_80/mem_stim_0.wav","2","main","","","true","mem_stim_0.wav","false","16","","0","miss"
"","","","","","html-keyboard-response","102","166061","0.0-10.0-1.36","https://mcdermottlab.mit.edu/mturk_stimuli/bjmedina/nhs-region-n_80/sequences/isi_16/len120/seq004_len120_s70_isi-1p0_0p0_16p0.json","11.129999999999999","true","ybctqv5sw90","","null","<span style=""font-size: 40px"">+</span>","null","","","","","","","","","",""
"","","","","","audio-button-response","103","168988","0.0-10.0-2.36","https://mcdermottlab.mit.edu/mturk_stimuli/bjmedina/nhs-region-n_80/sequences/isi_16/len120/seq004_len120_s70_isi-1p0_0p0_16p0.json","11.129999999999999","true","ybctqv5sw90","","2491","https://mcdermottlab.mit.edu/mturk_stimuli/bjmedina/nhs-region-n_80/mem_stim_3.wav","2","main","","","false","mem_stim_3.wav","false","-1","","1","correct_rejection"
"","","","","","html-keyboard-response","104","169058","0.0-10.0-1.37","https://mcdermottlab.mit.edu/mturk_stimuli/bjmedina/nhs-region-n_80/sequences/isi_16/len120/seq004_len120_s70_isi-1p0_0p0_16p0.json","11.129999999999999","true","ybctqv5sw90","","null","<span style=""font-size: 40px"">+</span>","null","","","","","","","","","",""
"","","","","","audio-button-response","105","171859","0.0-10.0-2.37","https://mcdermottlab.mit.edu/mturk_stimuli/bjmedina/nhs-region-n_80/sequences/isi_16/len120/seq004_len120_s70_isi-1p0_0p0_16p0.json","11.129999999999999","true","ybctqv5sw90","","2421","https://mcdermottlab.mit.edu/mturk_stimuli/bjmedina/nhs-region-n_80/mem_stim_72.wav","0","main","","","false","mem_stim_72.wav","false","-1","","1","correct_rejection"
"","","","","","html-keyboard-response","106","171921","0.0-10.0-1.38","https://mcdermottlab.mit.edu/mturk_stimuli/bjmedina/nhs-region-n_80/sequences/isi_16/len120/seq004_len120_s70_isi-1p0_0p0_16p0.json","11.129999999999999","true","ybctqv5sw90","","null","<span style=""font-size: 40px"">+</span>","null","","","","","","","","","",""
"","","","","","audio-button-response","107","174237","0.0-10.0-2.38","https://mcdermottlab.mit.edu/mturk_stimuli/bjmedina/nhs-region-n_80/sequences/isi_16/len120/seq004_len120_s70_isi-1p0_0p0_16p0.json","11.129999999999999","true","ybctqv5sw90","","2312","https://mcdermottlab.mit.edu/mturk_stimuli/bjmedina/nhs-region-n_80/mem_stim_20.wav","3","main","","","true","mem_stim_20.wav","false","16","","0","miss"
"","","","","","html-keyboard-response","108","174294","0.0-10.0-1.39","https://mcdermottlab.mit.edu/mturk_stimuli/bjmedina/nhs-region-n_80/sequences/isi_16/len120/seq004_len120_s70_isi-1p0_0p0_16p0.json","11.129999999999999","true","ybctqv5sw90","","null","<span style=""font-size: 40px"">+</span>","null","","","","","","","","","",""
"","","","","","audio-button-response","109","177005","0.0-10.0-2.39","https://mcdermottlab.mit.edu/mturk_stimuli/bjmedina/nhs-region-n_80/sequences/isi_16/len120/seq004_len120_s70_isi-1p0_0p0_16p0.json","11.129999999999999","true","ybctqv5sw90","","2259","https://mcdermottlab.mit.edu/mturk_stimuli/bjmedina/nhs-region-n_80/mem_stim_75.wav","0","main","","","false","mem_stim_75.wav","false","-1","","1","correct_rejection"
"","","","","","html-keyboard-response","110","177062","0.0-10.0-1.40","https://mcdermottlab.mit.edu/mturk_stimuli/bjmedina/nhs-region-n_80/sequences/isi_16/len120/seq004_len120_s70_isi-1p0_0p0_16p0.json","11.129999999999999","true","ybctqv5sw90","","null","<span style=""font-size: 40px"">+</span>","null","","","","","","","","","",""
"","","","","","audio-button-response","111","180822","0.0-10.0-2.40","https://mcdermottlab.mit.edu/mturk_stimuli/bjmedina/nhs-region-n_80/sequences/isi_16/len120/seq004_len120_s70_isi-1p0_0p0_16p0.json","11.129999999999999","true","ybctqv5sw90","","3381","https://mcdermottlab.mit.edu/mturk_stimuli/bjmedina/nhs-region-n_80/mem_stim_63.wav","1","main","","","false","mem_stim_63.wav","false","-1","","0","false_alarm"
"","","","","","html-keyboard-response","112","180889","0.0-10.0-1.41","https://mcdermottlab.mit.edu/mturk_stimuli/bjmedina/nhs-region-n_80/sequences/isi_16/len120/seq004_len120_s70_isi-1p0_0p0_16p0.json","11.129999999999999","true","ybctqv5sw90","","null","<span style=""font-size: 40px"">+</span>","null","","","","","","","","","",""
"","","","","","audio-button-response","113","183553","0.0-10.0-2.41","https://mcdermottlab.mit.edu/mturk_stimuli/bjmedina/nhs-region-n_80/sequences/isi_16/len120/seq004_len120_s70_isi-1p0_0p0_16p0.json","11.129999999999999","true","ybctqv5sw90","","2280","https://mcdermottlab.mit.edu/mturk_stimuli/bjmedina/nhs-region-n_80/mem_stim_59.wav","0","main","","","false","mem_stim_59.wav","false","-1","","1","correct_rejection"
"","","","","","html-keyboard-response","114","183618","0.0-10.0-1.42","https://mcdermottlab.mit.edu/mturk_stimuli/bjmedina/nhs-region-n_80/sequences/isi_16/len120/seq004_len120_s70_isi-1p0_0p0_16p0.json","11.129999999999999","true","ybctqv5sw90","","null","<span style=""font-size: 40px"">+</span>","null","","","","","","","","","",""
"","","","","","audio-button-response","115","186417","0.0-10.0-2.42","https://mcdermottlab.mit.edu/mturk_stimuli/bjmedina/nhs-region-n_80/sequences/isi_16/len120/seq004_len120_s70_isi-1p0_0p0_16p0.json","11.129999999999999","true","ybctqv5sw90","","2411","https://mcdermottlab.mit.edu/mturk_stimuli/bjmedina/nhs-region-n_80/mem_stim_79.wav","2","main","","","false","mem_stim_79.wav","false","-1","","1","correct_rejection"
"","","","","","html-keyboard-response","116","186474","0.0-10.0-1.43","https://mcdermottlab.mit.edu/mturk_stimuli/bjmedina/nhs-region-n_80/sequences/isi_16/len120/seq004_len120_s70_isi-1p0_0p0_16p0.json","11.129999999999999","true","ybctqv5sw90","","null","<span style=""font-size: 40px"">+</span>","null","","","","","","","","","",""
"","","","","","audio-button-response","117","189174","0.0-10.0-2.43","https://mcdermottlab.mit.edu/mturk_stimuli/bjmedina/nhs-region-n_80/sequences/isi_16/len120/seq004_len120_s70_isi-1p0_0p0_16p0.json","11.129999999999999","true","ybctqv5sw90","","2320","https://mcdermottlab.mit.edu/mturk_stimuli/bjmedina/nhs-region-n_80/mem_stim_44.wav","0","main","","","false","mem_stim_44.wav","false","-1","","1","correct_rejection"
"","","","","","html-keyboard-response","118","189242","0.0-10.0-1.44","https://mcdermottlab.mit.edu/mturk_stimuli/bjmedina/nhs-region-n_80/sequences/isi_16/len120/seq004_len120_s70_isi-1p0_0p0_16p0.json","11.129999999999999","true","ybctqv5sw90","","null","<span style=""font-size: 40px"">+</span>","null","","","","","","","","","",""
"","","","","","audio-button-response","119","191959","0.0-10.0-2.44","https://mcdermottlab.mit.edu/mturk_stimuli/bjmedina/nhs-region-n_80/sequences/isi_16/len120/seq004_len120_s70_isi-1p0_0p0_16p0.json","11.129999999999999","true","ybctqv5sw90","","2339","https://mcdermottlab.mit.edu/mturk_stimuli/bjmedina/nhs-region-n_80/mem_stim_38.wav","0","main","","","false","mem_stim_38.wav","false","-1","","1","correct_rejection"
"","","","","","html-keyboard-response","120","192023","0.0-10.0-1.45","https://mcdermottlab.mit.edu/mturk_stimuli/bjmedina/nhs-region-n_80/sequences/isi_16/len120/seq004_len120_s70_isi-1p0_0p0_16p0.json","11.129999999999999","true","ybctqv5sw90","","null","<span style=""font-size: 40px"">+</span>","null","","","","","","","","","",""
"","","","","","audio-button-response","121","194681","0.0-10.0-2.45","https://mcdermottlab.mit.edu/mturk_stimuli/bjmedina/nhs-region-n_80/sequences/isi_16/len120/seq004_len120_s70_isi-1p0_0p0_16p0.json","11.129999999999999","true","ybctqv5sw90","","2269","https://mcdermottlab.mit.edu/mturk_stimuli/bjmedina/nhs-region-n_80/mem_stim_61.wav","0","main","","","false","mem_stim_61.wav","false","-1","","1","correct_rejection"
"","","","","","html-keyboard-response","122","194746","0.0-10.0-1.46","https://mcdermottlab.mit.edu/mturk_stimuli/bjmedina/nhs-region-n_80/sequences/isi_16/len120/seq004_len120_s70_isi-1p0_0p0_16p0.json","11.129999999999999","true","ybctqv5sw90","","null","<span style=""font-size: 40px"">+</span>","null","","","","","","","","","",""
"","","","","","audio-button-response","123","197061","0.0-10.0-2.46","https://mcdermottlab.mit.edu/mturk_stimuli/bjmedina/nhs-region-n_80/sequences/isi_16/len120/seq004_len120_s70_isi-1p0_0p0_16p0.json","11.129999999999999","true","ybctqv5sw90","","2320","https://mcdermottlab.mit.edu/mturk_stimuli/bjmedina/nhs-region-n_80/mem_stim_50.wav","3","main","","","true","mem_stim_50.wav","false","16","","0","miss"
"","","","","","html-keyboard-response","124","197118","0.0-10.0-1.47","https://mcdermottlab.mit.edu/mturk_stimuli/bjmedina/nhs-region-n_80/sequences/isi_16/len120/seq004_len120_s70_isi-1p0_0p0_16p0.json","11.129999999999999","true","ybctqv5sw90","","null","<span style=""font-size: 40px"">+</span>","null","","","","","","","","","",""
"","","","","","audio-button-response","125","199741","0.0-10.0-2.47","https://mcdermottlab.mit.edu/mturk_stimuli/bjmedina/nhs-region-n_80/sequences/isi_16/len120/seq004_len120_s70_isi-1p0_0p0_16p0.json","11.129999999999999","true","ybctqv5sw90","","2171","https://mcdermottlab.mit.edu/mturk_stimuli/bjmedina/nhs-region-n_80/mem_stim_42.wav","0","main","","","false","mem_stim_42.wav","false","-1","","1","correct_rejection"
"","","","","","html-keyboard-response","126","199801","0.0-10.0-1.48","https://mcdermottlab.mit.edu/mturk_stimuli/bjmedina/nhs-region-n_80/sequences/isi_16/len120/seq004_len120_s70_isi-1p0_0p0_16p0.json","11.129999999999999","true","ybctqv5sw90","","null","<span style=""font-size: 40px"">+</span>","null","","","","","","","","","",""
"","","","","","audio-button-response","127","202538","0.0-10.0-2.48","https://mcdermottlab.mit.edu/mturk_stimuli/bjmedina/nhs-region-n_80/sequences/isi_16/len120/seq004_len120_s70_isi-1p0_0p0_16p0.json","11.129999999999999","true","ybctqv5sw90","","2349","https://mcdermottlab.mit.edu/mturk_stimuli/bjmedina/nhs-region-n_80/mem_stim_2.wav","0","main","","","false","mem_stim_2.wav","false","-1","","1","correct_rejection"
"","","","","","html-keyboard-response","128","202605","0.0-10.0-1.49","https://mcdermottlab.mit.edu/mturk_stimuli/bjmedina/nhs-region-n_80/sequences/isi_16/len120/seq004_len120_s70_isi-1p0_0p0_16p0.json","11.129999999999999","true","ybctqv5sw90","","null","<span style=""font-size: 40px"">+</span>","null","","","","","","","","","",""
"","","","","","audio-button-response","129","204919","0.0-10.0-2.49","https://mcdermottlab.mit.edu/mturk_stimuli/bjmedina/nhs-region-n_80/sequences/isi_16/len120/seq004_len120_s70_isi-1p0_0p0_16p0.json","11.129999999999999","true","ybctqv5sw90","","2320","https://mcdermottlab.mit.edu/mturk_stimuli/bjmedina/nhs-region-n_80/mem_stim_10.wav","3","main","","","true","mem_stim_10.wav","false","16","","0","miss"
"","","","","","html-keyboard-response","130","204990","0.0-10.0-1.50","https://mcdermottlab.mit.edu/mturk_stimuli/bjmedina/nhs-region-n_80/sequences/isi_16/len120/seq004_len120_s70_isi-1p0_0p0_16p0.json","11.129999999999999","true","ybctqv5sw90","","null","<span style=""font-size: 40px"">+</span>","null","","","","","","","","","",""
"","","","","","audio-button-response","131","207283","0.0-10.0-2.50","https://mcdermottlab.mit.edu/mturk_stimuli/bjmedina/nhs-region-n_80/sequences/isi_16/len120/seq004_len120_s70_isi-1p0_0p0_16p0.json","11.129999999999999","true","ybctqv5sw90","","2288","https://mcdermottlab.mit.edu/mturk_stimuli/bjmedina/nhs-region-n_80/mem_stim_12.wav","2","main","","","true","mem_stim_12.wav","false","16","","0","miss"
"","","","","","html-keyboard-response","132","207353","0.0-10.0-1.51","https://mcdermottlab.mit.edu/mturk_stimuli/bjmedina/nhs-region-n_80/sequences/isi_16/len120/seq004_len120_s70_isi-1p0_0p0_16p0.json","11.129999999999999","true","ybctqv5sw90","","null","<span style=""font-size: 40px"">+</span>","null","","","","","","","","","",""
"","","","","","audio-button-response","133","210318","0.0-10.0-2.51","https://mcdermottlab.mit.edu/mturk_stimuli/bjmedina/nhs-region-n_80/sequences/isi_16/len120/seq004_len120_s70_isi-1p0_0p0_16p0.json","11.129999999999999","true","ybctqv5sw90","","2960","https://mcdermottlab.mit.edu/mturk_stimuli/bjmedina/nhs-region-n_80/mem_stim_76.wav","2","main","","","true","mem_stim_76.wav","false","16","","0","miss"
"","","","","","html-keyboard-response","134","210382","0.0-10.0-1.52","https://mcdermottlab.mit.edu/mturk_stimuli/bjmedina/nhs-region-n_80/sequences/isi_16/len120/seq004_len120_s70_isi-1p0_0p0_16p0.json","11.129999999999999","true","ybctqv5sw90","","null","<span style=""font-size: 40px"">+</span>","null","","","","","","","","","",""
"","","","","","audio-button-response","135","213121","0.0-10.0-2.52","https://mcdermottlab.mit.edu/mturk_stimuli/bjmedina/nhs-region-n_80/sequences/isi_16/len120/seq004_len120_s70_isi-1p0_0p0_16p0.json","11.129999999999999","true","ybctqv5sw90","","2309","https://mcdermottlab.mit.edu/mturk_stimuli/bjmedina/nhs-region-n_80/mem_stim_5.wav","0","main","","","false","mem_stim_5.wav","false","-1","","1","correct_rejection"
"","","","","","html-keyboard-response","136","213183","0.0-10.0-1.53","https://mcdermottlab.mit.edu/mturk_stimuli/bjmedina/nhs-region-n_80/sequences/isi_16/len120/seq004_len120_s70_isi-1p0_0p0_16p0.json","11.129999999999999","true","ybctqv5sw90","","null","<span style=""font-size: 40px"">+</span>","null","","","","","","","","","",""
"","","","","","audio-button-response","137","215855","0.0-10.0-2.53","https://mcdermottlab.mit.edu/mturk_stimuli/bjmedina/nhs-region-n_80/sequences/isi_16/len120/seq004_len120_s70_isi-1p0_0p0_16p0.json","11.129999999999999","true","ybctqv5sw90","","2280","https://mcdermottlab.mit.edu/mturk_stimuli/bjmedina/nhs-region-n_80/mem_stim_52.wav","0","main","","","false","mem_stim_52.wav","false","-1","","1","correct_rejection"
"","","","","","html-keyboard-response","138","215926","0.0-10.0-1.54","https://mcdermottlab.mit.edu/mturk_stimuli/bjmedina/nhs-region-n_80/sequences/isi_16/len120/seq004_len120_s70_isi-1p0_0p0_16p0.json","11.129999999999999","true","ybctqv5sw90","","null","<span style=""font-size: 40px"">+</span>","null","","","","","","","","","",""
"","","","","","audio-button-response","139","218137","0.0-10.0-2.54","https://mcdermottlab.mit.edu/mturk_stimuli/bjmedina/nhs-region-n_80/sequences/isi_16/len120/seq004_len120_s70_isi-1p0_0p0_16p0.json","11.129999999999999","true","ybctqv5sw90","","2211","https://mcdermottlab.mit.edu/mturk_stimuli/bjmedina/nhs-region-n_80/mem_stim_52.wav","3","main","","","true","mem_stim_52.wav","true","0","","0","miss"
"","","","","","html-keyboard-response","140","218196","0.0-10.0-1.55","https://mcdermottlab.mit.edu/mturk_stimuli/bjmedina/nhs-region-n_80/sequences/isi_16/len120/seq004_len120_s70_isi-1p0_0p0_16p0.json","11.129999999999999","true","ybctqv5sw90","","null","<span style=""font-size: 40px"">+</span>","null","","","","","","","","","",""
"","","","","","audio-button-response","141","220936","0.0-10.0-2.55","https://mcdermottlab.mit.edu/mturk_stimuli/bjmedina/nhs-region-n_80/sequences/isi_16/len120/seq004_len120_s70_isi-1p0_0p0_16p0.json","11.129999999999999","true","ybctqv5sw90","","2291","https://mcdermottlab.mit.edu/mturk_stimuli/bjmedina/nhs-region-n_80/mem_stim_54.wav","0","main","","","false","mem_stim_54.wav","false","-1","","1","correct_rejection"
"","","","","","html-keyboard-response","142","221006","0.0-10.0-1.56","https://mcdermottlab.mit.edu/mturk_stimuli/bjmedina/nhs-region-n_80/sequences/isi_16/len120/seq004_len120_s70_isi-1p0_0p0_16p0.json","11.129999999999999","true","ybctqv5sw90","","null","<span style=""font-size: 40px"">+</span>","null","","","","","","","","","",""
"","","","","","audio-button-response","143","223307","0.0-10.0-2.56","https://mcdermottlab.mit.edu/mturk_stimuli/bjmedina/nhs-region-n_80/sequences/isi_16/len120/seq004_len120_s70_isi-1p0_0p0_16p0.json","11.129999999999999","true","ybctqv5sw90","","2301","https://mcdermottlab.mit.edu/mturk_stimuli/bjmedina/nhs-region-n_80/mem_stim_75.wav","2","main","","","true","mem_stim_75.wav","false","16","","0","miss"
"","","","","","html-keyboard-response","144","223366","0.0-10.0-1.57","https://mcdermottlab.mit.edu/mturk_stimuli/bjmedina/nhs-region-n_80/sequences/isi_16/len120/seq004_len120_s70_isi-1p0_0p0_16p0.json","11.129999999999999","true","ybctqv5sw90","","null","<span style=""font-size: 40px"">+</span>","null","","","","","","","","","",""
"","","","","","audio-button-response","145","225678","0.0-10.0-2.57","https://mcdermottlab.mit.edu/mturk_stimuli/bjmedina/nhs-region-n_80/sequences/isi_16/len120/seq004_len120_s70_isi-1p0_0p0_16p0.json","11.129999999999999","true","ybctqv5sw90","","2312","https://mcdermottlab.mit.edu/mturk_stimuli/bjmedina/nhs-region-n_80/mem_stim_63.wav","3","main","","","true","mem_stim_63.wav","false","16","","0","miss"
"","","","","","html-keyboard-response","146","225748","0.0-10.0-1.58","https://mcdermottlab.mit.edu/mturk_stimuli/bjmedina/nhs-region-n_80/sequences/isi_16/len120/seq004_len120_s70_isi-1p0_0p0_16p0.json","11.129999999999999","true","ybctqv5sw90","","null","<span style=""font-size: 40px"">+</span>","null","","","","","","","","","",""
"","","","","","audio-button-response","147","229301","0.0-10.0-2.58","https://mcdermottlab.mit.edu/mturk_stimuli/bjmedina/nhs-region-n_80/sequences/isi_16/len120/seq004_len120_s70_isi-1p0_0p0_16p0.json","11.129999999999999","true","ybctqv5sw90","","3181","https://mcdermottlab.mit.edu/mturk_stimuli/bjmedina/nhs-region-n_80/mem_stim_6.wav","1","main","","","false","mem_stim_6.wav","false","-1","","0","false_alarm"
"","","","","","html-keyboard-response","148","229361","0.0-10.0-1.59","https://mcdermottlab.mit.edu/mturk_stimuli/bjmedina/nhs-region-n_80/sequences/isi_16/len120/seq004_len120_s70_isi-1p0_0p0_16p0.json","11.129999999999999","true","ybctqv5sw90","","null","<span style=""font-size: 40px"">+</span>","null","","","","","","","","","",""
"","","","","","audio-button-response","149","231687","0.0-10.0-2.59","https://mcdermottlab.mit.edu/mturk_stimuli/bjmedina/nhs-region-n_80/sequences/isi_16/len120/seq004_len120_s70_isi-1p0_0p0_16p0.json","11.129999999999999","true","ybctqv5sw90","","2320","https://mcdermottlab.mit.edu/mturk_stimuli/bjmedina/nhs-region-n_80/mem_stim_79.wav","3","main","","","true","mem_stim_79.wav","false","16","","0","miss"
"","","","","","html-keyboard-response","150","231750","0.0-10.0-1.60","https://mcdermottlab.mit.edu/mturk_stimuli/bjmedina/nhs-region-n_80/sequences/isi_16/len120/seq004_len120_s70_isi-1p0_0p0_16p0.json","11.129999999999999","true","ybctqv5sw90","","null","<span style=""font-size: 40px"">+</span>","null","","","","","","","","","",""
"","","","","","audio-button-response","151","234847","0.0-10.0-2.60","https://mcdermottlab.mit.edu/mturk_stimuli/bjmedina/nhs-region-n_80/sequences/isi_16/len120/seq004_len120_s70_isi-1p0_0p0_16p0.json","11.129999999999999","true","ybctqv5sw90","","3088","https://mcdermottlab.mit.edu/mturk_stimuli/bjmedina/nhs-region-n_80/mem_stim_44.wav","1","main","","","true","mem_stim_44.wav","false","16","","1","hit"
"","","","","","html-keyboard-response","152","234906","0.0-10.0-1.61","https://mcdermottlab.mit.edu/mturk_stimuli/bjmedina/nhs-region-n_80/sequences/isi_16/len120/seq004_len120_s70_isi-1p0_0p0_16p0.json","11.129999999999999","true","ybctqv5sw90","","null","<span style=""font-size: 40px"">+</span>","null","","","","","","","","","",""
"","","","","","audio-button-response","153","237680","0.0-10.0-2.61","https://mcdermottlab.mit.edu/mturk_stimuli/bjmedina/nhs-region-n_80/sequences/isi_16/len120/seq004_len120_s70_isi-1p0_0p0_16p0.json","11.129999999999999","true","ybctqv5sw90","","2360","https://mcdermottlab.mit.edu/mturk_stimuli/bjmedina/nhs-region-n_80/mem_stim_77.wav","0","main","","","false","mem_stim_77.wav","false","-1","","1","correct_rejection"
"","","","","","html-keyboard-response","154","237750","0.0-10.0-1.62","https://mcdermottlab.mit.edu/mturk_stimuli/bjmedina/nhs-region-n_80/sequences/isi_16/len120/seq004_len120_s70_isi-1p0_0p0_16p0.json","11.129999999999999","true","ybctqv5sw90","","null","<span style=""font-size: 40px"">+</span>","null","","","","","","","","","",""
"","","","","","audio-button-response","155","240263","0.0-10.0-2.62","https://mcdermottlab.mit.edu/mturk_stimuli/bjmedina/nhs-region-n_80/sequences/isi_16/len120/seq004_len120_s70_isi-1p0_0p0_16p0.json","11.129999999999999","true","ybctqv5sw90","","2509","https://mcdermottlab.mit.edu/mturk_stimuli/bjmedina/nhs-region-n_80/mem_stim_61.wav","3","main","","","true","mem_stim_61.wav","false","16","","0","miss"
"","","","","","html-keyboard-response","156","240324","0.0-10.0-1.63","https://mcdermottlab.mit.edu/mturk_stimuli/bjmedina/nhs-region-n_80/sequences/isi_16/len120/seq004_len120_s70_isi-1p0_0p0_16p0.json","11.129999999999999","true","ybctqv5sw90","","null","<span style=""font-size: 40px"">+</span>","null","","","","","","","","","",""
"","","","","","audio-button-response","157","243837","0.0-10.0-2.63","https://mcdermottlab.mit.edu/mturk_stimuli/bjmedina/nhs-region-n_80/sequences/isi_16/len120/seq004_len120_s70_isi-1p0_0p0_16p0.json","11.129999999999999","true","ybctqv5sw90","","3112","https://mcdermottlab.mit.edu/mturk_stimuli/bjmedina/nhs-region-n_80/mem_stim_49.wav","0","main","","","false","mem_stim_49.wav","false","-1","","1","correct_rejection"
"","","","","","html-keyboard-response","158","243895","0.0-10.0-1.64","https://mcdermottlab.mit.edu/mturk_stimuli/bjmedina/nhs-region-n_80/sequences/isi_16/len120/seq004_len120_s70_isi-1p0_0p0_16p0.json","11.129999999999999","true","ybctqv5sw90","","null","<span style=""font-size: 40px"">+</span>","null","","","","","","","","","",""
"","","","","","audio-button-response","159","246579","0.0-10.0-2.64","https://mcdermottlab.mit.edu/mturk_stimuli/bjmedina/nhs-region-n_80/sequences/isi_16/len120/seq004_len120_s70_isi-1p0_0p0_16p0.json","11.129999999999999","true","ybctqv5sw90","","2301","https://mcdermottlab.mit.edu/mturk_stimuli/bjmedina/nhs-region-n_80/mem_stim_60.wav","0","main","","","false","mem_stim_60.wav","false","-1","","1","correct_rejection"
"","","","","","html-keyboard-response","160","246638","0.0-10.0-1.65","https://mcdermottlab.mit.edu/mturk_stimuli/bjmedina/nhs-region-n_80/sequences/isi_16/len120/seq004_len120_s70_isi-1p0_0p0_16p0.json","11.129999999999999","true","ybctqv5sw90","","null","<span style=""font-size: 40px"">+</span>","null","","","","","","","","","",""
"","","","","","audio-button-response","161","249301","0.0-10.0-2.65","https://mcdermottlab.mit.edu/mturk_stimuli/bjmedina/nhs-region-n_80/sequences/isi_16/len120/seq004_len120_s70_isi-1p0_0p0_16p0.json","11.129999999999999","true","ybctqv5sw90","","2301","https://mcdermottlab.mit.edu/mturk_stimuli/bjmedina/nhs-region-n_80/mem_stim_47.wav","0","main","","","false","mem_stim_47.wav","false","-1","","1","correct_rejection"
"","","","","","html-keyboard-response","162","249362","0.0-10.0-1.66","https://mcdermottlab.mit.edu/mturk_stimuli/bjmedina/nhs-region-n_80/sequences/isi_16/len120/seq004_len120_s70_isi-1p0_0p0_16p0.json","11.129999999999999","true","ybctqv5sw90","","null","<span style=""font-size: 40px"">+</span>","null","","","","","","","","","",""
"","","","","","audio-button-response","163","252035","0.0-10.0-2.66","https://mcdermottlab.mit.edu/mturk_stimuli/bjmedina/nhs-region-n_80/sequences/isi_16/len120/seq004_len120_s70_isi-1p0_0p0_16p0.json","11.129999999999999","true","ybctqv5sw90","","2291","https://mcdermottlab.mit.edu/mturk_stimuli/bjmedina/nhs-region-n_80/mem_stim_18.wav","0","main","","","false","mem_stim_18.wav","false","-1","","1","correct_rejection"
"","","","","","html-keyboard-response","164","252093","0.0-10.0-1.67","https://mcdermottlab.mit.edu/mturk_stimuli/bjmedina/nhs-region-n_80/sequences/isi_16/len120/seq004_len120_s70_isi-1p0_0p0_16p0.json","11.129999999999999","true","ybctqv5sw90","","null","<span style=""font-size: 40px"">+</span>","null","","","","","","","","","",""
"","","","","","audio-button-response","165","254678","0.0-10.0-2.67","https://mcdermottlab.mit.edu/mturk_stimuli/bjmedina/nhs-region-n_80/sequences/isi_16/len120/seq004_len120_s70_isi-1p0_0p0_16p0.json","11.129999999999999","true","ybctqv5sw90","","2211","https://mcdermottlab.mit.edu/mturk_stimuli/bjmedina/nhs-region-n_80/mem_stim_17.wav","0","main","","","false","mem_stim_17.wav","false","-1","","1","correct_rejection"
"","","","","","html-keyboard-response","166","254744","0.0-10.0-1.68","https://mcdermottlab.mit.edu/mturk_stimuli/bjmedina/nhs-region-n_80/sequences/isi_16/len120/seq004_len120_s70_isi-1p0_0p0_16p0.json","11.129999999999999","true","ybctqv5sw90","","null","<span style=""font-size: 40px"">+</span>","null","","","","","","","","","",""
"","","","","","audio-button-response","167","257020","0.0-10.0-2.68","https://mcdermottlab.mit.edu/mturk_stimuli/bjmedina/nhs-region-n_80/sequences/isi_16/len120/seq004_len120_s70_isi-1p0_0p0_16p0.json","11.129999999999999","true","ybctqv5sw90","","2280","https://mcdermottlab.mit.edu/mturk_stimuli/bjmedina/nhs-region-n_80/mem_stim_17.wav","3","main","","","true","mem_stim_17.wav","true","0","","0","miss"
"","","","","","html-keyboard-response","168","257080","0.0-10.0-1.69","https://mcdermottlab.mit.edu/mturk_stimuli/bjmedina/nhs-region-n_80/sequences/isi_16/len120/seq004_len120_s70_isi-1p0_0p0_16p0.json","11.129999999999999","true","ybctqv5sw90","","null","<span style=""font-size: 40px"">+</span>","null","","","","","","","","","",""
"","","","","","audio-button-response","169","259853","0.0-10.0-2.69","https://mcdermottlab.mit.edu/mturk_stimuli/bjmedina/nhs-region-n_80/sequences/isi_16/len120/seq004_len120_s70_isi-1p0_0p0_16p0.json","11.129999999999999","true","ybctqv5sw90","","2331","https://mcdermottlab.mit.edu/mturk_stimuli/bjmedina/nhs-region-n_80/mem_stim_71.wav","0","main","","","false","mem_stim_71.wav","false","-1","","1","correct_rejection"
"","","","","","html-keyboard-response","170","259917","0.0-10.0-1.70","https://mcdermottlab.mit.edu/mturk_stimuli/bjmedina/nhs-region-n_80/sequences/isi_16/len120/seq004_len120_s70_isi-1p0_0p0_16p0.json","11.129999999999999","true","ybctqv5sw90","","null","<span style=""font-size: 40px"">+</span>","null","","","","","","","","","",""
"","","","","","audio-button-response","171","262651","0.0-10.0-2.70","https://mcdermottlab.mit.edu/mturk_stimuli/bjmedina/nhs-region-n_80/sequences/isi_16/len120/seq004_len120_s70_isi-1p0_0p0_16p0.json","11.129999999999999","true","ybctqv5sw90","","2320","https://mcdermottlab.mit.edu/mturk_stimuli/bjmedina/nhs-region-n_80/mem_stim_27.wav","2","main","","","false","mem_stim_27.wav","false","-1","","1","correct_rejection"
"","","","","","html-keyboard-response","172","262711","0.0-10.0-1.71","https://mcdermottlab.mit.edu/mturk_stimuli/bjmedina/nhs-region-n_80/sequences/isi_16/len120/seq004_len120_s70_isi-1p0_0p0_16p0.json","11.129999999999999","true","ybctqv5sw90","","null","<span style=""font-size: 40px"">+</span>","null","","","","","","","","","",""
"","","","","","audio-button-response","173","264960","0.0-10.0-2.71","https://mcdermottlab.mit.edu/mturk_stimuli/bjmedina/nhs-region-n_80/sequences/isi_16/len120/seq004_len120_s70_isi-1p0_0p0_16p0.json","11.129999999999999","true","ybctqv5sw90","","2248","https://mcdermottlab.mit.edu/mturk_stimuli/bjmedina/nhs-region-n_80/mem_stim_27.wav","3","main","","","true","mem_stim_27.wav","true","0","","0","miss"
"","","","","","html-keyboard-response","174","265026","0.0-10.0-1.72","https://mcdermottlab.mit.edu/mturk_stimuli/bjmedina/nhs-region-n_80/sequences/isi_16/len120/seq004_len120_s70_isi-1p0_0p0_16p0.json","11.129999999999999","true","ybctqv5sw90","","null","<span style=""font-size: 40px"">+</span>","null","","","","","","","","","",""
"","","","","","audio-button-response","175","267678","0.0-10.0-2.72","https://mcdermottlab.mit.edu/mturk_stimuli/bjmedina/nhs-region-n_80/sequences/isi_16/len120/seq004_len120_s70_isi-1p0_0p0_16p0.json","11.129999999999999","true","ybctqv5sw90","","2280","https://mcdermottlab.mit.edu/mturk_stimuli/bjmedina/nhs-region-n_80/mem_stim_4.wav","0","main","","","false","mem_stim_4.wav","false","-1","","1","correct_rejection"
"","","","","","html-keyboard-response","176","267742","0.0-10.0-1.73","https://mcdermottlab.mit.edu/mturk_stimuli/bjmedina/nhs-region-n_80/sequences/isi_16/len120/seq004_len120_s70_isi-1p0_0p0_16p0.json","11.129999999999999","true","ybctqv5sw90","","null","<span style=""font-size: 40px"">+</span>","null","","","","","","","","","",""
"","","","","","audio-button-response","177","270459","0.0-10.0-2.73","https://mcdermottlab.mit.edu/mturk_stimuli/bjmedina/nhs-region-n_80/sequences/isi_16/len120/seq004_len120_s70_isi-1p0_0p0_16p0.json","11.129999999999999","true","ybctqv5sw90","","2341","https://mcdermottlab.mit.edu/mturk_stimuli/bjmedina/nhs-region-n_80/mem_stim_23.wav","2","main","","","false","mem_stim_23.wav","false","-1","","1","correct_rejection"
"","","","","","html-keyboard-response","178","270523","0.0-10.0-1.74","https://mcdermottlab.mit.edu/mturk_stimuli/bjmedina/nhs-region-n_80/sequences/isi_16/len120/seq004_len120_s70_isi-1p0_0p0_16p0.json","11.129999999999999","true","ybctqv5sw90","","null","<span style=""font-size: 40px"">+</span>","null","","","","","","","","","",""
"","","","","","audio-button-response","179","273175","0.0-10.0-2.74","https://mcdermottlab.mit.edu/mturk_stimuli/bjmedina/nhs-region-n_80/sequences/isi_16/len120/seq004_len120_s70_isi-1p0_0p0_16p0.json","11.129999999999999","true","ybctqv5sw90","","2280","https://mcdermottlab.mit.edu/mturk_stimuli/bjmedina/nhs-region-n_80/mem_stim_19.wav","2","main","","","false","mem_stim_19.wav","false","-1","","1","correct_rejection"
"","","","","","html-keyboard-response","180","273246","0.0-10.0-1.75","https://mcdermottlab.mit.edu/mturk_stimuli/bjmedina/nhs-region-n_80/sequences/isi_16/len120/seq004_len120_s70_isi-1p0_0p0_16p0.json","11.129999999999999","true","ybctqv5sw90","","null","<span style=""font-size: 40px"">+</span>","null","","","","","","","","","",""
"","","","","","audio-button-response","181","275448","0.0-10.0-2.75","https://mcdermottlab.mit.edu/mturk_stimuli/bjmedina/nhs-region-n_80/sequences/isi_16/len120/seq004_len120_s70_isi-1p0_0p0_16p0.json","11.129999999999999","true","ybctqv5sw90","","2200","https://mcdermottlab.mit.edu/mturk_stimuli/bjmedina/nhs-region-n_80/mem_stim_19.wav","3","main","","","true","mem_stim_19.wav","true","0","","0","miss"
"","","","","","html-keyboard-response","182","275518","0.0-10.0-1.76","https://mcdermottlab.mit.edu/mturk_stimuli/bjmedina/nhs-region-n_80/sequences/isi_16/len120/seq004_len120_s70_isi-1p0_0p0_16p0.json","11.129999999999999","true","ybctqv5sw90","","null","<span style=""font-size: 40px"">+</span>","null","","","","","","","","","",""
"","","","","","audio-button-response","183","278244","0.0-10.0-2.76","https://mcdermottlab.mit.edu/mturk_stimuli/bjmedina/nhs-region-n_80/sequences/isi_16/len120/seq004_len120_s70_isi-1p0_0p0_16p0.json","11.129999999999999","true","ybctqv5sw90","","2288","https://mcdermottlab.mit.edu/mturk_stimuli/bjmedina/nhs-region-n_80/mem_stim_46.wav","0","main","","","false","mem_stim_46.wav","false","-1","","1","correct_rejection"
"","","","","","html-keyboard-response","184","278316","0.0-10.0-1.77","https://mcdermottlab.mit.edu/mturk_stimuli/bjmedina/nhs-region-n_80/sequences/isi_16/len120/seq004_len120_s70_isi-1p0_0p0_16p0.json","11.129999999999999","true","ybctqv5sw90","","null","<span style=""font-size: 40px"">+</span>","null","","","","","","","","","",""
"","","","","","audio-button-response","185","281645","0.0-10.0-2.77","https://mcdermottlab.mit.edu/mturk_stimuli/bjmedina/nhs-region-n_80/sequences/isi_16/len120/seq004_len120_s70_isi-1p0_0p0_16p0.json","11.129999999999999","true","ybctqv5sw90","","2920","https://mcdermottlab.mit.edu/mturk_stimuli/bjmedina/nhs-region-n_80/mem_stim_16.wav","1","main","","","false","mem_stim_16.wav","false","-1","","0","false_alarm"
"","","","","","html-keyboard-response","186","281708","0.0-10.0-1.78","https://mcdermottlab.mit.edu/mturk_stimuli/bjmedina/nhs-region-n_80/sequences/isi_16/len120/seq004_len120_s70_isi-1p0_0p0_16p0.json","11.129999999999999","true","ybctqv5sw90","","null","<span style=""font-size: 40px"">+</span>","null","","","","","","","","","",""
"","","","","","audio-button-response","187","284450","0.0-10.0-2.78","https://mcdermottlab.mit.edu/mturk_stimuli/bjmedina/nhs-region-n_80/sequences/isi_16/len120/seq004_len120_s70_isi-1p0_0p0_16p0.json","11.129999999999999","true","ybctqv5sw90","","2379","https://mcdermottlab.mit.edu/mturk_stimuli/bjmedina/nhs-region-n_80/mem_stim_1.wav","2","main","","","false","mem_stim_1.wav","false","-1","","1","correct_rejection"
"","","","","","html-keyboard-response","188","284511","0.0-10.0-1.79","https://mcdermottlab.mit.edu/mturk_stimuli/bjmedina/nhs-region-n_80/sequences/isi_16/len120/seq004_len120_s70_isi-1p0_0p0_16p0.json","11.129999999999999","true","ybctqv5sw90","","null","<span style=""font-size: 40px"">+</span>","null","","","","","","","","","",""
"","","","","","audio-button-response","189","287175","0.0-10.0-2.79","https://mcdermottlab.mit.edu/mturk_stimuli/bjmedina/nhs-region-n_80/sequences/isi_16/len120/seq004_len120_s70_isi-1p0_0p0_16p0.json","11.129999999999999","true","ybctqv5sw90","","2299","https://mcdermottlab.mit.edu/mturk_stimuli/bjmedina/nhs-region-n_80/mem_stim_37.wav","0","main","","","false","mem_stim_37.wav","false","-1","","1","correct_rejection"
"","","","","","html-keyboard-response","190","287246","0.0-10.0-1.80","https://mcdermottlab.mit.edu/mturk_stimuli/bjmedina/nhs-region-n_80/sequences/isi_16/len120/seq004_len120_s70_isi-1p0_0p0_16p0.json","11.129999999999999","true","ybctqv5sw90","","null","<span style=""font-size: 40px"">+</span>","null","","","","","","","","","",""
"","","","","","audio-button-response","191","289553","0.0-10.0-2.80","https://mcdermottlab.mit.edu/mturk_stimuli/bjmedina/nhs-region-n_80/sequences/isi_16/len120/seq004_len120_s70_isi-1p0_0p0_16p0.json","11.129999999999999","true","ybctqv5sw90","","2312","https://mcdermottlab.mit.edu/mturk_stimuli/bjmedina/nhs-region-n_80/mem_stim_37.wav","3","main","","","true","mem_stim_37.wav","true","0","","0","miss"
"","","","","","html-keyboard-response","192","289619","0.0-10.0-1.81","https://mcdermottlab.mit.edu/mturk_stimuli/bjmedina/nhs-region-n_80/sequences/isi_16/len120/seq004_len120_s70_isi-1p0_0p0_16p0.json","11.129999999999999","true","ybctqv5sw90","","null","<span style=""font-size: 40px"">+</span>","null","","","","","","","","","",""
"","","","","","audio-button-response","193","292369","0.0-10.0-2.81","https://mcdermottlab.mit.edu/mturk_stimuli/bjmedina/nhs-region-n_80/sequences/isi_16/len120/seq004_len120_s70_isi-1p0_0p0_16p0.json","11.129999999999999","true","ybctqv5sw90","","2339","https://mcdermottlab.mit.edu/mturk_stimuli/bjmedina/nhs-region-n_80/mem_stim_21.wav","0","main","","","false","mem_stim_21.wav","false","-1","","1","correct_rejection"
"","","","","","html-keyboard-response","194","292444","0.0-10.0-1.82","https://mcdermottlab.mit.edu/mturk_stimuli/bjmedina/nhs-region-n_80/sequences/isi_16/len120/seq004_len120_s70_isi-1p0_0p0_16p0.json","11.129999999999999","true","ybctqv5sw90","","null","<span style=""font-size: 40px"">+</span>","null","","","","","","","","","",""
"","","","","","audio-button-response","195","294727","0.0-10.0-2.82","https://mcdermottlab.mit.edu/mturk_stimuli/bjmedina/nhs-region-n_80/sequences/isi_16/len120/seq004_len120_s70_isi-1p0_0p0_16p0.json","11.129999999999999","true","ybctqv5sw90","","2280","https://mcdermottlab.mit.edu/mturk_stimuli/bjmedina/nhs-region-n_80/mem_stim_47.wav","0","main","","","true","mem_stim_47.wav","false","16","","0","miss"
"","","","","","html-keyboard-response","196","294798","0.0-10.0-1.83","https://mcdermottlab.mit.edu/mturk_stimuli/bjmedina/nhs-region-n_80/sequences/isi_16/len120/seq004_len120_s70_isi-1p0_0p0_16p0.json","11.129999999999999","true","ybctqv5sw90","","null","<span style=""font-size: 40px"">+</span>","null","","","","","","","","","",""
"","","","","","audio-button-response","197","297475","0.0-10.0-2.83","https://mcdermottlab.mit.edu/mturk_stimuli/bjmedina/nhs-region-n_80/sequences/isi_16/len120/seq004_len120_s70_isi-1p0_0p0_16p0.json","11.129999999999999","true","ybctqv5sw90","","2301","https://mcdermottlab.mit.edu/mturk_stimuli/bjmedina/nhs-region-n_80/mem_stim_11.wav","1","main","","","false","mem_stim_11.wav","false","-1","","0","false_alarm"
"","","","","","html-keyboard-response","198","297536","0.0-10.0-1.84","https://mcdermottlab.mit.edu/mturk_stimuli/bjmedina/nhs-region-n_80/sequences/isi_16/len120/seq004_len120_s70_isi-1p0_0p0_16p0.json","11.129999999999999","true","ybctqv5sw90","","null","<span style=""font-size: 40px"">+</span>","null","","","","","","","","","",""
"","","","","","audio-button-response","199","300191","0.0-10.0-2.84","https://mcdermottlab.mit.edu/mturk_stimuli/bjmedina/nhs-region-n_80/sequences/isi_16/len120/seq004_len120_s70_isi-1p0_0p0_16p0.json","11.129999999999999","true","ybctqv5sw90","","2301","https://mcdermottlab.mit.edu/mturk_stimuli/bjmedina/nhs-region-n_80/mem_stim_34.wav","0","main","","","false","mem_stim_34.wav","false","-1","","1","correct_rejection"
"","","","","","html-keyboard-response","200","300259","0.0-10.0-1.85","https://mcdermottlab.mit.edu/mturk_stimuli/bjmedina/nhs-region-n_80/sequences/isi_16/len120/seq004_len120_s70_isi-1p0_0p0_16p0.json","11.129999999999999","true","ybctqv5sw90","","null","<span style=""font-size: 40px"">+</span>","null","","","","","","","","","",""
"","","","","","audio-button-response","201","302888","0.0-10.0-2.85","https://mcdermottlab.mit.edu/mturk_stimuli/bjmedina/nhs-region-n_80/sequences/isi_16/len120/seq004_len120_s70_isi-1p0_0p0_16p0.json","11.129999999999999","true","ybctqv5sw90","","2259","https://mcdermottlab.mit.edu/mturk_stimuli/bjmedina/nhs-region-n_80/mem_stim_35.wav","2","main","","","false","mem_stim_35.wav","false","-1","","1","correct_rejection"
"","","","","","html-keyboard-response","202","302959","0.0-10.0-1.86","https://mcdermottlab.mit.edu/mturk_stimuli/bjmedina/nhs-region-n_80/sequences/isi_16/len120/seq004_len120_s70_isi-1p0_0p0_16p0.json","11.129999999999999","true","ybctqv5sw90","","null","<span style=""font-size: 40px"">+</span>","null","","","","","","","","","",""
"","","","","","audio-button-response","203","305297","0.0-10.0-2.86","https://mcdermottlab.mit.edu/mturk_stimuli/bjmedina/nhs-region-n_80/sequences/isi_16/len120/seq004_len120_s70_isi-1p0_0p0_16p0.json","11.129999999999999","true","ybctqv5sw90","","2331","https://mcdermottlab.mit.edu/mturk_stimuli/bjmedina/nhs-region-n_80/mem_stim_71.wav","3","main","","","true","mem_stim_71.wav","false","16","","0","miss"
"","","","","","html-keyboard-response","204","305358","0.0-10.0-1.87","https://mcdermottlab.mit.edu/mturk_stimuli/bjmedina/nhs-region-n_80/sequences/isi_16/len120/seq004_len120_s70_isi-1p0_0p0_16p0.json","11.129999999999999","true","ybctqv5sw90","","null","<span style=""font-size: 40px"">+</span>","null","","","","","","","","","",""
"","","","","","audio-button-response","205","308172","0.0-10.0-2.87","https://mcdermottlab.mit.edu/mturk_stimuli/bjmedina/nhs-region-n_80/sequences/isi_16/len120/seq004_len120_s70_isi-1p0_0p0_16p0.json","11.129999999999999","true","ybctqv5sw90","","2371","https://mcdermottlab.mit.edu/mturk_stimuli/bjmedina/nhs-region-n_80/mem_stim_53.wav","0","main","","","false","mem_stim_53.wav","false","-1","","1","correct_rejection"
"","","","","","html-keyboard-response","206","308241","0.0-10.0-1.88","https://mcdermottlab.mit.edu/mturk_stimuli/bjmedina/nhs-region-n_80/sequences/isi_16/len120/seq004_len120_s70_isi-1p0_0p0_16p0.json","11.129999999999999","true","ybctqv5sw90","","null","<span style=""font-size: 40px"">+</span>","null","","","","","","","","","",""
"","","","","","audio-button-response","207","310768","0.0-10.0-2.88","https://mcdermottlab.mit.edu/mturk_stimuli/bjmedina/nhs-region-n_80/sequences/isi_16/len120/seq004_len120_s70_isi-1p0_0p0_16p0.json","11.129999999999999","true","ybctqv5sw90","","2139","https://mcdermottlab.mit.edu/mturk_stimuli/bjmedina/nhs-region-n_80/mem_stim_7.wav","0","main","","","false","mem_stim_7.wav","false","-1","","1","correct_rejection"
"","","","","","html-keyboard-response","208","310829","0.0-10.0-1.89","https://mcdermottlab.mit.edu/mturk_stimuli/bjmedina/nhs-region-n_80/sequences/isi_16/len120/seq004_len120_s70_isi-1p0_0p0_16p0.json","11.129999999999999","true","ybctqv5sw90","","null","<span style=""font-size: 40px"">+</span>","null","","","","","","","","","",""
"","","","","","audio-button-response","209","313501","0.0-10.0-2.89","https://mcdermottlab.mit.edu/mturk_stimuli/bjmedina/nhs-region-n_80/sequences/isi_16/len120/seq004_len120_s70_isi-1p0_0p0_16p0.json","11.129999999999999","true","ybctqv5sw90","","2301","https://mcdermottlab.mit.edu/mturk_stimuli/bjmedina/nhs-region-n_80/mem_stim_43.wav","0","main","","","false","mem_stim_43.wav","false","-1","","1","correct_rejection"
"","","","","","html-keyboard-response","210","313568","0.0-10.0-1.90","https://mcdermottlab.mit.edu/mturk_stimuli/bjmedina/nhs-region-n_80/sequences/isi_16/len120/seq004_len120_s70_isi-1p0_0p0_16p0.json","11.129999999999999","true","ybctqv5sw90","","null","<span style=""font-size: 40px"">+</span>","null","","","","","","","","","",""
"","","","","","audio-button-response","211","316097","0.0-10.0-2.90","https://mcdermottlab.mit.edu/mturk_stimuli/bjmedina/nhs-region-n_80/sequences/isi_16/len120/seq004_len120_s70_isi-1p0_0p0_16p0.json","11.129999999999999","true","ybctqv5sw90","","2531","https://mcdermottlab.mit.edu/mturk_stimuli/bjmedina/nhs-region-n_80/mem_stim_23.wav","3","main","","","true","mem_stim_23.wav","false","16","","0","miss"
"","","","","","html-keyboard-response","212","316163","0.0-10.0-1.91","https://mcdermottlab.mit.edu/mturk_stimuli/bjmedina/nhs-region-n_80/sequences/isi_16/len120/seq004_len120_s70_isi-1p0_0p0_16p0.json","11.129999999999999","true","ybctqv5sw90","","null","<span style=""font-size: 40px"">+</span>","null","","","","","","","","","",""
"","","","","","audio-button-response","213","319079","0.0-10.0-2.91","https://mcdermottlab.mit.edu/mturk_stimuli/bjmedina/nhs-region-n_80/sequences/isi_16/len120/seq004_len120_s70_isi-1p0_0p0_16p0.json","11.129999999999999","true","ybctqv5sw90","","2461","https://mcdermottlab.mit.edu/mturk_stimuli/bjmedina/nhs-region-n_80/mem_stim_74.wav","1","main","","","false","mem_stim_74.wav","false","-1","","0","false_alarm"
"","","","","","html-keyboard-response","214","319140","0.0-10.0-1.92","https://mcdermottlab.mit.edu/mturk_stimuli/bjmedina/nhs-region-n_80/sequences/isi_16/len120/seq004_len120_s70_isi-1p0_0p0_16p0.json","11.129999999999999","true","ybctqv5sw90","","null","<span style=""font-size: 40px"">+</span>","null","","","","","","","","","",""
"","","","","","audio-button-response","215","321812","0.0-10.0-2.92","https://mcdermottlab.mit.edu/mturk_stimuli/bjmedina/nhs-region-n_80/sequences/isi_16/len120/seq004_len120_s70_isi-1p0_0p0_16p0.json","11.129999999999999","true","ybctqv5sw90","","2291","https://mcdermottlab.mit.edu/mturk_stimuli/bjmedina/nhs-region-n_80/mem_stim_26.wav","2","main","","","false","mem_stim_26.wav","false","-1","","1","correct_rejection"
"","","","","","html-keyboard-response","216","321887","0.0-10.0-1.93","https://mcdermottlab.mit.edu/mturk_stimuli/bjmedina/nhs-region-n_80/sequences/isi_16/len120/seq004_len120_s70_isi-1p0_0p0_16p0.json","11.129999999999999","true","ybctqv5sw90","","null","<span style=""font-size: 40px"">+</span>","null","","","","","","","","","",""
"","","","","","audio-button-response","217","324252","0.0-10.0-2.93","https://mcdermottlab.mit.edu/mturk_stimuli/bjmedina/nhs-region-n_80/sequences/isi_16/len120/seq004_len120_s70_isi-1p0_0p0_16p0.json","11.129999999999999","true","ybctqv5sw90","","2371","https://mcdermottlab.mit.edu/mturk_stimuli/bjmedina/nhs-region-n_80/mem_stim_46.wav","2","main","","","true","mem_stim_46.wav","false","16","","0","miss"
"","","","","","html-keyboard-response","218","324322","0.0-10.0-1.94","https://mcdermottlab.mit.edu/mturk_stimuli/bjmedina/nhs-region-n_80/sequences/isi_16/len120/seq004_len120_s70_isi-1p0_0p0_16p0.json","11.129999999999999","true","ybctqv5sw90","","null","<span style=""font-size: 40px"">+</span>","null","","","","","","","","","",""
"","","","","","audio-button-response","219","327018","0.0-10.0-2.94","https://mcdermottlab.mit.edu/mturk_stimuli/bjmedina/nhs-region-n_80/sequences/isi_16/len120/seq004_len120_s70_isi-1p0_0p0_16p0.json","11.129999999999999","true","ybctqv5sw90","","2251","https://mcdermottlab.mit.edu/mturk_stimuli/bjmedina/nhs-region-n_80/mem_stim_32.wav","0","main","","","false","mem_stim_32.wav","false","-1","","1","correct_rejection"
"","","","","","html-keyboard-response","220","327092","0.0-10.0-1.95","https://mcdermottlab.mit.edu/mturk_stimuli/bjmedina/nhs-region-n_80/sequences/isi_16/len120/seq004_len120_s70_isi-1p0_0p0_16p0.json","11.129999999999999","true","ybctqv5sw90","","null","<span style=""font-size: 40px"">+</span>","null","","","","","","","","","",""
"","","","","","audio-button-response","221","329864","0.0-10.0-2.95","https://mcdermottlab.mit.edu/mturk_stimuli/bjmedina/nhs-region-n_80/sequences/isi_16/len120/seq004_len120_s70_isi-1p0_0p0_16p0.json","11.129999999999999","true","ybctqv5sw90","","2381","https://mcdermottlab.mit.edu/mturk_stimuli/bjmedina/nhs-region-n_80/mem_stim_41.wav","2","main","","","false","mem_stim_41.wav","false","-1","","1","correct_rejection"
"","","","","","html-keyboard-response","222","329926","0.0-10.0-1.96","https://mcdermottlab.mit.edu/mturk_stimuli/bjmedina/nhs-region-n_80/sequences/isi_16/len120/seq004_len120_s70_isi-1p0_0p0_16p0.json","11.129999999999999","true","ybctqv5sw90","","null","<span style=""font-size: 40px"">+</span>","null","","","","","","","","","",""
"","","","","","audio-button-response","223","331967","0.0-10.0-2.96","https://mcdermottlab.mit.edu/mturk_stimuli/bjmedina/nhs-region-n_80/sequences/isi_16/len120/seq004_len120_s70_isi-1p0_0p0_16p0.json","11.129999999999999","true","ybctqv5sw90","","2040","https://mcdermottlab.mit.edu/mturk_stimuli/bjmedina/nhs-region-n_80/mem_stim_41.wav","3","main","","","true","mem_stim_41.wav","true","0","","0","miss"
"","","","","","html-keyboard-response","224","332034","0.0-10.0-1.97","https://mcdermottlab.mit.edu/mturk_stimuli/bjmedina/nhs-region-n_80/sequences/isi_16/len120/seq004_len120_s70_isi-1p0_0p0_16p0.json","11.129999999999999","true","ybctqv5sw90","","null","<span style=""font-size: 40px"">+</span>","null","","","","","","","","","",""
"","","","","","audio-button-response","225","334689","0.0-10.0-2.97","https://mcdermottlab.mit.edu/mturk_stimuli/bjmedina/nhs-region-n_80/sequences/isi_16/len120/seq004_len120_s70_isi-1p0_0p0_16p0.json","11.129999999999999","true","ybctqv5sw90","","2259","https://mcdermottlab.mit.edu/mturk_stimuli/bjmedina/nhs-region-n_80/mem_stim_29.wav","0","main","","","false","mem_stim_29.wav","false","-1","","1","correct_rejection"
"","","","","","html-keyboard-response","226","334752","0.0-10.0-1.98","https://mcdermottlab.mit.edu/mturk_stimuli/bjmedina/nhs-region-n_80/sequences/isi_16/len120/seq004_len120_s70_isi-1p0_0p0_16p0.json","11.129999999999999","true","ybctqv5sw90","","null","<span style=""font-size: 40px"">+</span>","null","","","","","","","","","",""
"","","","","","audio-button-response","227","337191","0.0-10.0-2.98","https://mcdermottlab.mit.edu/mturk_stimuli/bjmedina/nhs-region-n_80/sequences/isi_16/len120/seq004_len120_s70_isi-1p0_0p0_16p0.json","11.129999999999999","true","ybctqv5sw90","","2440","https://mcdermottlab.mit.edu/mturk_stimuli/bjmedina/nhs-region-n_80/mem_stim_21.wav","0","main","","","true","mem_stim_21.wav","false","16","","0","miss"
"","","","","","html-keyboard-response","228","337255","0.0-10.0-1.99","https://mcdermottlab.mit.edu/mturk_stimuli/bjmedina/nhs-region-n_80/sequences/isi_16/len120/seq004_len120_s70_isi-1p0_0p0_16p0.json","11.129999999999999","true","ybctqv5sw90","","null","<span style=""font-size: 40px"">+</span>","null","","","","","","","","","",""
"","","","","","audio-button-response","229","340010","0.0-10.0-2.99","https://mcdermottlab.mit.edu/mturk_stimuli/bjmedina/nhs-region-n_80/sequences/isi_16/len120/seq004_len120_s70_isi-1p0_0p0_16p0.json","11.129999999999999","true","ybctqv5sw90","","2309","https://mcdermottlab.mit.edu/mturk_stimuli/bjmedina/nhs-region-n_80/mem_stim_65.wav","0","main","","","false","mem_stim_65.wav","false","-1","","1","correct_rejection"
"","","","","","html-keyboard-response","230","340076","0.0-10.0-1.100","https://mcdermottlab.mit.edu/mturk_stimuli/bjmedina/nhs-region-n_80/sequences/isi_16/len120/seq004_len120_s70_isi-1p0_0p0_16p0.json","11.129999999999999","true","ybctqv5sw90","","null","<span style=""font-size: 40px"">+</span>","null","","","","","","","","","",""
"","","","","","audio-button-response","231","342587","0.0-10.0-2.100","https://mcdermottlab.mit.edu/mturk_stimuli/bjmedina/nhs-region-n_80/sequences/isi_16/len120/seq004_len120_s70_isi-1p0_0p0_16p0.json","11.129999999999999","true","ybctqv5sw90","","2509","https://mcdermottlab.mit.edu/mturk_stimuli/bjmedina/nhs-region-n_80/mem_stim_11.wav","2","main","","","true","mem_stim_11.wav","false","16","","0","miss"
"","","","","","html-keyboard-response","232","342648","0.0-10.0-1.101","https://mcdermottlab.mit.edu/mturk_stimuli/bjmedina/nhs-region-n_80/sequences/isi_16/len120/seq004_len120_s70_isi-1p0_0p0_16p0.json","11.129999999999999","true","ybctqv5sw90","","null","<span style=""font-size: 40px"">+</span>","null","","","","","","","","","",""
"","","","","","audio-button-response","233","345380","0.0-10.0-2.101","https://mcdermottlab.mit.edu/mturk_stimuli/bjmedina/nhs-region-n_80/sequences/isi_16/len120/seq004_len120_s70_isi-1p0_0p0_16p0.json","11.129999999999999","true","ybctqv5sw90","","2349","https://mcdermottlab.mit.edu/mturk_stimuli/bjmedina/nhs-region-n_80/mem_stim_39.wav","0","main","","","false","mem_stim_39.wav","false","-1","","1","correct_rejection"
"","","","","","html-keyboard-response","234","345452","0.0-10.0-1.102","https://mcdermottlab.mit.edu/mturk_stimuli/bjmedina/nhs-region-n_80/sequences/isi_16/len120/seq004_len120_s70_isi-1p0_0p0_16p0.json","11.129999999999999","true","ybctqv5sw90","","null","<span style=""font-size: 40px"">+</span>","null","","","","","","","","","",""
"","","","","","audio-button-response","235","348097","0.0-10.0-2.102","https://mcdermottlab.mit.edu/mturk_stimuli/bjmedina/nhs-region-n_80/sequences/isi_16/len120/seq004_len120_s70_isi-1p0_0p0_16p0.json","11.129999999999999","true","ybctqv5sw90","","2259","https://mcdermottlab.mit.edu/mturk_stimuli/bjmedina/nhs-region-n_80/mem_stim_36.wav","2","main","","","false","mem_stim_36.wav","false","-1","","1","correct_rejection"
"","","","","","html-keyboard-response","236","348159","0.0-10.0-1.103","https://mcdermottlab.mit.edu/mturk_stimuli/bjmedina/nhs-region-n_80/sequences/isi_16/len120/seq004_len120_s70_isi-1p0_0p0_16p0.json","11.129999999999999","true","ybctqv5sw90","","null","<span style=""font-size: 40px"">+</span>","null","","","","","","","","","",""
"","","","","","audio-button-response","237","350865","0.0-10.0-2.103","https://mcdermottlab.mit.edu/mturk_stimuli/bjmedina/nhs-region-n_80/sequences/isi_16/len120/seq004_len120_s70_isi-1p0_0p0_16p0.json","11.129999999999999","true","ybctqv5sw90","","2320","https://mcdermottlab.mit.edu/mturk_stimuli/bjmedina/nhs-region-n_80/mem_stim_55.wav","3","main","","","false","mem_stim_55.wav","false","-1","","1","correct_rejection"
"","","","","","html-keyboard-response","238","350930","0.0-10.0-1.104","https://mcdermottlab.mit.edu/mturk_stimuli/bjmedina/nhs-region-n_80/sequences/isi_16/len120/seq004_len120_s70_isi-1p0_0p0_16p0.json","11.129999999999999","true","ybctqv5sw90","","null","<span style=""font-size: 40px"">+</span>","null","","","","","","","","","",""
"","","","","","audio-button-response","239","353654","0.0-10.0-2.104","https://mcdermottlab.mit.edu/mturk_stimuli/bjmedina/nhs-region-n_80/sequences/isi_16/len120/seq004_len120_s70_isi-1p0_0p0_16p0.json","11.129999999999999","true","ybctqv5sw90","","2339","https://mcdermottlab.mit.edu/mturk_stimuli/bjmedina/nhs-region-n_80/mem_stim_48.wav","0","main","","","false","mem_stim_48.wav","false","-1","","1","correct_rejection"
"","","","","","html-keyboard-response","240","353728","0.0-10.0-1.105","https://mcdermottlab.mit.edu/mturk_stimuli/bjmedina/nhs-region-n_80/sequences/isi_16/len120/seq004_len120_s70_isi-1p0_0p0_16p0.json","11.129999999999999","true","ybctqv5sw90","","null","<span style=""font-size: 40px"">+</span>","null","","","","","","","","","",""
"","","","","","audio-button-response","241","356414","0.0-10.0-2.105","https://mcdermottlab.mit.edu/mturk_stimuli/bjmedina/nhs-region-n_80/sequences/isi_16/len120/seq004_len120_s70_isi-1p0_0p0_16p0.json","11.129999999999999","true","ybctqv5sw90","","2299","https://mcdermottlab.mit.edu/mturk_stimuli/bjmedina/nhs-region-n_80/mem_stim_24.wav","0","main","","","false","mem_stim_24.wav","false","-1","","1","correct_rejection"
"","","","","","html-keyboard-response","242","356476","0.0-10.0-1.106","https://mcdermottlab.mit.edu/mturk_stimuli/bjmedina/nhs-region-n_80/sequences/isi_16/len120/seq004_len120_s70_isi-1p0_0p0_16p0.json","11.129999999999999","true","ybctqv5sw90","","null","<span style=""font-size: 40px"">+</span>","null","","","","","","","","","",""
"","","","","","audio-button-response","243","358821","0.0-10.0-2.106","https://mcdermottlab.mit.edu/mturk_stimuli/bjmedina/nhs-region-n_80/sequences/isi_16/len120/seq004_len120_s70_isi-1p0_0p0_16p0.json","11.129999999999999","true","ybctqv5sw90","","2349","https://mcdermottlab.mit.edu/mturk_stimuli/bjmedina/nhs-region-n_80/mem_stim_43.wav","2","main","","","true","mem_stim_43.wav","false","16","","0","miss"
"","","","","","html-keyboard-response","244","358889","0.0-10.0-1.107","https://mcdermottlab.mit.edu/mturk_stimuli/bjmedina/nhs-region-n_80/sequences/isi_16/len120/seq004_len120_s70_isi-1p0_0p0_16p0.json","11.129999999999999","true","ybctqv5sw90","","null","<span style=""font-size: 40px"">+</span>","null","","","","","","","","","",""
"","","","","","audio-button-response","245","361520","0.0-10.0-2.107","https://mcdermottlab.mit.edu/mturk_stimuli/bjmedina/nhs-region-n_80/sequences/isi_16/len120/seq004_len120_s70_isi-1p0_0p0_16p0.json","11.129999999999999","true","ybctqv5sw90","","2187","https://mcdermottlab.mit.edu/mturk_stimuli/bjmedina/nhs-region-n_80/mem_stim_64.wav","0","main","","","false","mem_stim_64.wav","false","-1","","1","correct_rejection"
"","","","","","html-keyboard-response","246","361589","0.0-10.0-1.108","https://mcdermottlab.mit.edu/mturk_stimuli/bjmedina/nhs-region-n_80/sequences/isi_16/len120/seq004_len120_s70_isi-1p0_0p0_16p0.json","11.129999999999999","true","ybctqv5sw90","","null","<span style=""font-size: 40px"">+</span>","null","","","","","","","","","",""
"","","","","","audio-button-response","247","364081","0.0-10.0-2.108","https://mcdermottlab.mit.edu/mturk_stimuli/bjmedina/nhs-region-n_80/sequences/isi_16/len120/seq004_len120_s70_isi-1p0_0p0_16p0.json","11.129999999999999","true","ybctqv5sw90","","2488","https://mcdermottlab.mit.edu/mturk_stimuli/bjmedina/nhs-region-n_80/mem_stim_74.wav","2","main","","","true","mem_stim_74.wav","false","16","","0","miss"
"","","","","","html-keyboard-response","248","364146","0.0-10.0-1.109","https://mcdermottlab.mit.edu/mturk_stimuli/bjmedina/nhs-region-n_80/sequences/isi_16/len120/seq004_len120_s70_isi-1p0_0p0_16p0.json","11.129999999999999","true","ybctqv5sw90","","null","<span style=""font-size: 40px"">+</span>","null","","","","","","","","","",""
"","","","","","audio-button-response","249","366452","0.0-10.0-2.109","https://mcdermottlab.mit.edu/mturk_stimuli/bjmedina/nhs-region-n_80/sequences/isi_16/len120/seq004_len120_s70_isi-1p0_0p0_16p0.json","11.129999999999999","true","ybctqv5sw90","","2309","https://mcdermottlab.mit.edu/mturk_stimuli/bjmedina/nhs-region-n_80/mem_stim_26.wav","3","main","","","true","mem_stim_26.wav","false","16","","0","miss"
"","","","","","html-keyboard-response","250","366526","0.0-10.0-1.110","https://mcdermottlab.mit.edu/mturk_stimuli/bjmedina/nhs-region-n_80/sequences/isi_16/len120/seq004_len120_s70_isi-1p0_0p0_16p0.json","11.129999999999999","true","ybctqv5sw90","","null","<span style=""font-size: 40px"">+</span>","null","","","","","","","","","",""
"","","","","","audio-button-response","251","369330","0.0-10.0-2.110","https://mcdermottlab.mit.edu/mturk_stimuli/bjmedina/nhs-region-n_80/sequences/isi_16/len120/seq004_len120_s70_isi-1p0_0p0_16p0.json","11.129999999999999","true","ybctqv5sw90","","2419","https://mcdermottlab.mit.edu/mturk_stimuli/bjmedina/nhs-region-n_80/mem_stim_28.wav","0","main","","","false","mem_stim_28.wav","false","-1","","1","correct_rejection"
"","","","","","html-keyboard-response","252","369396","0.0-10.0-1.111","https://mcdermottlab.mit.edu/mturk_stimuli/bjmedina/nhs-region-n_80/sequences/isi_16/len120/seq004_len120_s70_isi-1p0_0p0_16p0.json","11.129999999999999","true","ybctqv5sw90","","null","<span style=""font-size: 40px"">+</span>","null","","","","","","","","","",""
"","","","","","audio-button-response","253","371729","0.0-10.0-2.111","https://mcdermottlab.mit.edu/mturk_stimuli/bjmedina/nhs-region-n_80/sequences/isi_16/len120/seq004_len120_s70_isi-1p0_0p0_16p0.json","11.129999999999999","true","ybctqv5sw90","","2328","https://mcdermottlab.mit.edu/mturk_stimuli/bjmedina/nhs-region-n_80/mem_stim_32.wav","3","main","","","true","mem_stim_32.wav","false","16","","0","miss"
"","","","","","html-keyboard-response","254","371793","0.0-10.0-1.112","https://mcdermottlab.mit.edu/mturk_stimuli/bjmedina/nhs-region-n_80/sequences/isi_16/len120/seq004_len120_s70_isi-1p0_0p0_16p0.json","11.129999999999999","true","ybctqv5sw90","","null","<span style=""font-size: 40px"">+</span>","null","","","","","","","","","",""
"","","","","","audio-button-response","255","374573","0.0-10.0-2.112","https://mcdermottlab.mit.edu/mturk_stimuli/bjmedina/nhs-region-n_80/sequences/isi_16/len120/seq004_len120_s70_isi-1p0_0p0_16p0.json","11.129999999999999","true","ybctqv5sw90","","2309","https://mcdermottlab.mit.edu/mturk_stimuli/bjmedina/nhs-region-n_80/mem_stim_40.wav","0","main","","","false","mem_stim_40.wav","false","-1","","1","correct_rejection"
"","","","","","html-keyboard-response","256","374635","0.0-10.0-1.113","https://mcdermottlab.mit.edu/mturk_stimuli/bjmedina/nhs-region-n_80/sequences/isi_16/len120/seq004_len120_s70_isi-1p0_0p0_16p0.json","11.129999999999999","true","ybctqv5sw90","","null","<span style=""font-size: 40px"">+</span>","null","","","","","","","","","",""
"","","","","","audio-button-response","257","377263","0.0-10.0-2.113","https://mcdermottlab.mit.edu/mturk_stimuli/bjmedina/nhs-region-n_80/sequences/isi_16/len120/seq004_len120_s70_isi-1p0_0p0_16p0.json","11.129999999999999","true","ybctqv5sw90","","2251","https://mcdermottlab.mit.edu/mturk_stimuli/bjmedina/nhs-region-n_80/mem_stim_9.wav","0","main","","","false","mem_stim_9.wav","false","-1","","1","correct_rejection"
"","","","","","html-keyboard-response","258","377345","0.0-10.0-1.114","https://mcdermottlab.mit.edu/mturk_stimuli/bjmedina/nhs-region-n_80/sequences/isi_16/len120/seq004_len120_s70_isi-1p0_0p0_16p0.json","11.129999999999999","true","ybctqv5sw90","","null","<span style=""font-size: 40px"">+</span>","null","","","","","","","","","",""
"","","","","","audio-button-response","259","379652","0.0-10.0-2.114","https://mcdermottlab.mit.edu/mturk_stimuli/bjmedina/nhs-region-n_80/sequences/isi_16/len120/seq004_len120_s70_isi-1p0_0p0_16p0.json","11.129999999999999","true","ybctqv5sw90","","2309","https://mcdermottlab.mit.edu/mturk_stimuli/bjmedina/nhs-region-n_80/mem_stim_29.wav","2","main","","","true","mem_stim_29.wav","false","16","","0","miss"
"","","","","","html-keyboard-response","260","379724","0.0-10.0-1.115","https://mcdermottlab.mit.edu/mturk_stimuli/bjmedina/nhs-region-n_80/sequences/isi_16/len120/seq004_len120_s70_isi-1p0_0p0_16p0.json","11.129999999999999","true","ybctqv5sw90","","null","<span style=""font-size: 40px"">+</span>","null","","","","","","","","","",""
"","","","","","audio-button-response","261","382479","0.0-10.0-2.115","https://mcdermottlab.mit.edu/mturk_stimuli/bjmedina/nhs-region-n_80/sequences/isi_16/len120/seq004_len120_s70_isi-1p0_0p0_16p0.json","11.129999999999999","true","ybctqv5sw90","","2309","https://mcdermottlab.mit.edu/mturk_stimuli/bjmedina/nhs-region-n_80/mem_stim_8.wav","0","main","","","false","mem_stim_8.wav","false","-1","","1","correct_rejection"
"","","","","","html-keyboard-response","262","382555","0.0-10.0-1.116","https://mcdermottlab.mit.edu/mturk_stimuli/bjmedina/nhs-region-n_80/sequences/isi_16/len120/seq004_len120_s70_isi-1p0_0p0_16p0.json","11.129999999999999","true","ybctqv5sw90","","null","<span style=""font-size: 40px"">+</span>","null","","","","","","","","","",""
"","","","","","audio-button-response","263","384845","0.0-10.0-2.116","https://mcdermottlab.mit.edu/mturk_stimuli/bjmedina/nhs-region-n_80/sequences/isi_16/len120/seq004_len120_s70_isi-1p0_0p0_16p0.json","11.129999999999999","true","ybctqv5sw90","","2288","https://mcdermottlab.mit.edu/mturk_stimuli/bjmedina/nhs-region-n_80/mem_stim_65.wav","2","main","","","true","mem_stim_65.wav","false","16","","0","miss"
