"success","timeout","failed_images","failed_audio","failed_video","trial_type","trial_index","time_elapsed","internal_node_id","sequence_file","pay","passed_hc","view_history","rt","stimulus","response","stim_type","hc_answer","correct_hc","repeat","yt_id","catch","isi","type","is_correct","response_type"
"true","false","[]","[]","[]","preload","0","1652","0.0-0.0","https://mcdermottlab.mit.edu/mturk_stimuli/bjmedina/mem_exp_atexts_2025/sequences/isi_16/len120/seq022_len120_s15_isi-1p0_0p0_16p0.json","0.25","true","","","","","","","","","","","","","",""
"","","","","","instructions","1","69313","0.0-1.0","https://mcdermottlab.mit.edu/mturk_stimuli/bjmedina/mem_exp_atexts_2025/sequences/isi_16/len120/seq022_len120_s15_isi-1p0_0p0_16p0.json","0.25","true","[{""page_index"":0,""viewing_time"":67658}]","67659","","","","","","","","","","","",""
"","","","","","instructions","2","73969","0.0-2.0","https://mcdermottlab.mit.edu/mturk_stimuli/bjmedina/mem_exp_atexts_2025/sequences/isi_16/len120/seq022_len120_s15_isi-1p0_0p0_16p0.json","0.25","true","[{""page_index"":0,""viewing_time"":4654}]","4655","","","","","","","","","","","",""
"","","","","","audio-button-response","3","160080","0.0-3.0-0.0","https://mcdermottlab.mit.edu/mturk_stimuli/bjmedina/mem_exp_atexts_2025/sequences/isi_16/len120/seq022_len120_s15_isi-1p0_0p0_16p0.json","0.25","true","","83915","https://mcdermottlab.mit.edu/bjmedina/experiments/mem_exp_v01/assets/noise_calib_stim.wav","0","","","","","","","","","",""
"","","","","","audio-button-response","4","163871","0.0-3.1-0.1","https://mcdermottlab.mit.edu/mturk_stimuli/bjmedina/mem_exp_atexts_2025/sequences/isi_16/len120/seq022_len120_s15_isi-1p0_0p0_16p0.json","0.25","true","","3712","https://mcdermottlab.mit.edu/bjmedina/experiments/mem_exp_v01/assets/noise_calib_stim.wav","0","","","","","","","","","",""
"","","","","","audio-button-response","5","169243","0.0-3.2-0.2","https://mcdermottlab.mit.edu/mturk_stimuli/bjmedina/mem_exp_atexts_2025/sequences/isi_16/len120/seq022_len120_s15_isi-1p0_0p0_16p0.json","0.25","true","","5376","https://mcdermottlab.mit.edu/bjmedina/experiments/mem_exp_v01/assets/noise_calib_stim.wav","1","","","","","","","","","",""
"","","","","","instructions","6","175641","0.0-4.0","https://mcdermottlab.mit.edu/mturk_stimuli/bjmedina/mem_exp_atexts_2025/sequences/isi_16/len120/seq022_len120_s15_isi-1p0_0p0_16p0.json","0.25","true","[{""page_index"":0,""viewing_time"":6396}]","6397","","","","","","","","","","","",""
"","","","","","audio-button-response","7","186882","0.0-5.0-0.0","https://mcdermottlab.mit.edu/mturk_stimuli/bjmedina/mem_exp_atexts_2025/sequences/isi_16/len120/seq022_len120_s15_isi-1p0_0p0_16p0.json","0.25","true","","5920","https://mcdermottlab.mit.edu/bjmedina/experiments/mem_exp_v01/assets/antiphase_HC_SOI.wav","0","hc","1","1","","","","","","",""
"","","","","","audio-button-response","8","196683","0.0-5.0-0.1","https://mcdermottlab.mit.edu/mturk_stimuli/bjmedina/mem_exp_atexts_2025/sequences/isi_16/len120/seq022_len120_s15_isi-1p0_0p0_16p0.json","0.25","true","","5216","https://mcdermottlab.mit.edu/bjmedina/experiments/mem_exp_v01/assets/antiphase_HC_IOS.wav","2","hc","3","1","","","","","","",""
"","","","","","audio-button-response","9","210533","0.0-5.0-0.2","https://mcdermottlab.mit.edu/mturk_stimuli/bjmedina/mem_exp_atexts_2025/sequences/isi_16/len120/seq022_len120_s15_isi-1p0_0p0_16p0.json","0.25","true","","5397","https://mcdermottlab.mit.edu/bjmedina/experiments/mem_exp_v01/assets/antiphase_HC_ISO.wav","1","hc","2","1","","","","","","",""
"","","","","","audio-button-response","10","219263","0.0-5.0-0.3","https://mcdermottlab.mit.edu/mturk_stimuli/bjmedina/mem_exp_atexts_2025/sequences/isi_16/len120/seq022_len120_s15_isi-1p0_0p0_16p0.json","0.25","true","","4907","https://mcdermottlab.mit.edu/bjmedina/experiments/mem_exp_v01/assets/antiphase_HC_OSI.wav","1","hc","2","1","","","","","","",""
"","","","","","audio-button-response","11","241004","0.0-5.0-0.4","https://mcdermottlab.mit.edu/mturk_stimuli/bjmedina/mem_exp_atexts_2025/sequences/isi_16/len120/seq022_len120_s15_isi-1p0_0p0_16p0.json","0.25","true","","5131","https://mcdermottlab.mit.edu/bjmedina/experiments/mem_exp_v01/assets/antiphase_HC_OIS.wav","2","hc","3","1","","","","","","",""
"","","","","","audio-button-response","12","248763","0.0-5.0-0.5","https://mcdermottlab.mit.edu/mturk_stimuli/bjmedina/mem_exp_atexts_2025/sequences/isi_16/len120/seq022_len120_s15_isi-1p0_0p0_16p0.json","0.25","true","","5013","https://mcdermottlab.mit.edu/bjmedina/experiments/mem_exp_v01/assets/antiphase_HC_SIO.wav","0","hc","1","1","","","","","","",""
"","","","","","html-keyboard-response","13","250099","0.0-6.0","https://mcdermottlab.mit.edu/mturk_stimuli/bjmedina/mem_exp_atexts_2025/sequences/isi_16/len120/seq022_len120_s15_isi-1p0_0p0_16p0.json","0.25","true","","1334","<h1>You have finished the LOUDNESS task!</h1> <p>Press space to continue</p>"," ","","","","","","","","","",""
"","","","","","instructions","14","289892","0.0-7.0","https://mcdermottlab.mit.edu/mturk_stimuli/bjmedina/mem_exp_atexts_2025/sequences/isi_16/len120/seq022_len120_s15_isi-1p0_0p0_16p0.json","0.25","true","[{""page_index"":0,""viewing_time"":13051},{""page_index"":1,""viewing_time"":7635},{""page_index"":2,""viewing_time"":13188},{""page_index"":3,""viewing_time"":5917}]","39791","","","","","","","","","","","",""
"","","","","","html-keyboard-response","15","289947","0.0-8.0-0.0","https://mcdermottlab.mit.edu/mturk_stimuli/bjmedina/mem_exp_atexts_2025/sequences/isi_16/len120/seq022_len120_s15_isi-1p0_0p0_16p0.json","0.25","true","","null","<span style=""font-size: 40px"">+</span>","null","fixation","","","","","","","","",""
"","","","","","audio-button-response","16","299237","0.0-8.0-1.0","https://mcdermottlab.mit.edu/mturk_stimuli/bjmedina/mem_exp_atexts_2025/sequences/isi_16/len120/seq022_len120_s15_isi-1p0_0p0_16p0.json","0.25","true","","3339","https://mcdermottlab.mit.edu/mturk_stimuli/bjmedina/mem_exp_v05/mem_stim_1023_f32.wav","0","demo","","","0","","","","","",""
"","","","","","html-keyboard-response","17","299291","0.0-8.0-0.1","https://mcdermottlab.mit.edu/mturk_stimuli/bjmedina/mem_exp_atexts_2025/sequences/isi_16/len120/seq022_len120_s15_isi-1p0_0p0_16p0.json","0.25","true","","null","<span style=""font-size: 40px"">+</span>","null","fixation","","","","","","","","",""
"","","","","","audio-button-response","18","320306","0.0-8.0-1.1","https://mcdermottlab.mit.edu/mturk_stimuli/bjmedina/mem_exp_atexts_2025/sequences/isi_16/len120/seq022_len120_s15_isi-1p0_0p0_16p0.json","0.25","true","","2955","https://mcdermottlab.mit.edu/mturk_stimuli/bjmedina/mem_exp_v05/mem_stim_1022_f32.wav","0","demo","","","0","","","","","",""
"","","","","","html-keyboard-response","19","320362","0.0-8.0-0.2","https://mcdermottlab.mit.edu/mturk_stimuli/bjmedina/mem_exp_atexts_2025/sequences/isi_16/len120/seq022_len120_s15_isi-1p0_0p0_16p0.json","0.25","true","","null","<span style=""font-size: 40px"">+</span>","null","fixation","","","","","","","","",""
"","","","","","audio-button-response","20","323006","0.0-8.0-1.2","https://mcdermottlab.mit.edu/mturk_stimuli/bjmedina/mem_exp_atexts_2025/sequences/isi_16/len120/seq022_len120_s15_isi-1p0_0p0_16p0.json","0.25","true","","2635","https://mcdermottlab.mit.edu/mturk_stimuli/bjmedina/mem_exp_v05/mem_stim_1022_f32.wav","3","demo","","","1","","","","","",""
"","","","","","html-keyboard-response","21","323061","0.0-8.0-0.3","https://mcdermottlab.mit.edu/mturk_stimuli/bjmedina/mem_exp_atexts_2025/sequences/isi_16/len120/seq022_len120_s15_isi-1p0_0p0_16p0.json","0.25","true","","null","<span style=""font-size: 40px"">+</span>","null","fixation","","","","","","","","",""
"","","","","","audio-button-response","22","339969","0.0-8.0-1.3","https://mcdermottlab.mit.edu/mturk_stimuli/bjmedina/mem_exp_atexts_2025/sequences/isi_16/len120/seq022_len120_s15_isi-1p0_0p0_16p0.json","0.25","true","","5408","https://mcdermottlab.mit.edu/mturk_stimuli/bjmedina/mem_exp_v05/mem_stim_1021_f32.wav","2","demo","","","0","","","","","",""
"","","","","","html-keyboard-response","23","340025","0.0-8.0-0.4","https://mcdermottlab.mit.edu/mturk_stimuli/bjmedina/mem_exp_atexts_2025/sequences/isi_16/len120/seq022_len120_s15_isi-1p0_0p0_16p0.json","0.25","true","","null","<span style=""font-size: 40px"">+</span>","null","fixation","","","","","","","","",""
"","","","","","audio-button-response","24","342655","0.0-8.0-1.4","https://mcdermottlab.mit.edu/mturk_stimuli/bjmedina/mem_exp_atexts_2025/sequences/isi_16/len120/seq022_len120_s15_isi-1p0_0p0_16p0.json","0.25","true","","2624","https://mcdermottlab.mit.edu/mturk_stimuli/bjmedina/mem_exp_v05/mem_stim_1023_f32.wav","2","demo","","","1","","","","","",""
"","","","","","html-keyboard-response","25","342723","0.0-8.0-0.5","https://mcdermottlab.mit.edu/mturk_stimuli/bjmedina/mem_exp_atexts_2025/sequences/isi_16/len120/seq022_len120_s15_isi-1p0_0p0_16p0.json","0.25","true","","null","<span style=""font-size: 40px"">+</span>","null","fixation","","","","","","","","",""
"","","","","","audio-button-response","26","351044","0.0-8.0-1.5","https://mcdermottlab.mit.edu/mturk_stimuli/bjmedina/mem_exp_atexts_2025/sequences/isi_16/len120/seq022_len120_s15_isi-1p0_0p0_16p0.json","0.25","true","","2827","https://mcdermottlab.mit.edu/mturk_stimuli/bjmedina/mem_exp_v05/mem_stim_1020_f32.wav","0","demo","","","0","","","","","",""
"","","","","","html-keyboard-response","27","351102","0.0-8.0-0.6","https://mcdermottlab.mit.edu/mturk_stimuli/bjmedina/mem_exp_atexts_2025/sequences/isi_16/len120/seq022_len120_s15_isi-1p0_0p0_16p0.json","0.25","true","","null","<span style=""font-size: 40px"">+</span>","null","fixation","","","","","","","","",""
"","","","","","audio-button-response","28","413556","0.0-8.0-1.6","https://mcdermottlab.mit.edu/mturk_stimuli/bjmedina/mem_exp_atexts_2025/sequences/isi_16/len120/seq022_len120_s15_isi-1p0_0p0_16p0.json","0.25","true","","2656","https://mcdermottlab.mit.edu/mturk_stimuli/bjmedina/mem_exp_v05/mem_stim_1019_f32.wav","0","demo","","","0","","","","","",""
"","","","","","html-keyboard-response","29","413622","0.0-8.0-0.7","https://mcdermottlab.mit.edu/mturk_stimuli/bjmedina/mem_exp_atexts_2025/sequences/isi_16/len120/seq022_len120_s15_isi-1p0_0p0_16p0.json","0.25","true","","null","<span style=""font-size: 40px"">+</span>","null","fixation","","","","","","","","",""
"","","","","","audio-button-response","30","434444","0.0-8.0-1.7","https://mcdermottlab.mit.edu/mturk_stimuli/bjmedina/mem_exp_atexts_2025/sequences/isi_16/len120/seq022_len120_s15_isi-1p0_0p0_16p0.json","0.25","true","","20811","https://mcdermottlab.mit.edu/mturk_stimuli/bjmedina/mem_exp_v05/mem_stim_1021_f32.wav","0","demo","","","1","","","","","",""
"","","","","","html-keyboard-response","31","436356","0.0-9.0","https://mcdermottlab.mit.edu/mturk_stimuli/bjmedina/mem_exp_atexts_2025/sequences/isi_16/len120/seq022_len120_s15_isi-1p0_0p0_16p0.json","0.25","true","","1910","<p>You are now ready to start the experiment. Press SPACE when you are ready to start.</p>"," ","","","","","","","","","",""
"","","","","","html-keyboard-response","32","436422","0.0-10.0-1.0","https://mcdermottlab.mit.edu/mturk_stimuli/bjmedina/mem_exp_atexts_2025/sequences/isi_16/len120/seq022_len120_s15_isi-1p0_0p0_16p0.json","0.25","true","","null","<span style=""font-size: 40px"">+</span>","null","","","","","","","","","",""
"","","","","","audio-button-response","33","644371","0.0-10.0-2.0","https://mcdermottlab.mit.edu/mturk_stimuli/bjmedina/mem_exp_atexts_2025/sequences/isi_16/len120/seq022_len120_s15_isi-1p0_0p0_16p0.json","0.25","true","","2955","https://mcdermottlab.mit.edu/mturk_stimuli/bjmedina/mem_exp_atexts_2025/mem_stim_29.wav","0","main","","","false","mem_stim_29.wav","false","-1","","1","correct_rejection"
"","","","","","html-keyboard-response","34","644458","0.0-10.0-1.1","https://mcdermottlab.mit.edu/mturk_stimuli/bjmedina/mem_exp_atexts_2025/sequences/isi_16/len120/seq022_len120_s15_isi-1p0_0p0_16p0.json","0.25","true","","null","<span style=""font-size: 40px"">+</span>","null","","","","","","","","","",""
"","","","","","audio-button-response","35","664989","0.0-10.0-2.1","https://mcdermottlab.mit.edu/mturk_stimuli/bjmedina/mem_exp_atexts_2025/sequences/isi_16/len120/seq022_len120_s15_isi-1p0_0p0_16p0.json","0.25","true","","2635","https://mcdermottlab.mit.edu/mturk_stimuli/bjmedina/mem_exp_atexts_2025/mem_stim_27.wav","0","main","","","false","mem_stim_27.wav","false","-1","","1","correct_rejection"
"","","","","","html-keyboard-response","36","665049","0.0-10.0-1.2","https://mcdermottlab.mit.edu/mturk_stimuli/bjmedina/mem_exp_atexts_2025/sequences/isi_16/len120/seq022_len120_s15_isi-1p0_0p0_16p0.json","0.25","true","","null","<span style=""font-size: 40px"">+</span>","null","","","","","","","","","",""
"","","","","","audio-button-response","37","687536","0.0-10.0-2.2","https://mcdermottlab.mit.edu/mturk_stimuli/bjmedina/mem_exp_atexts_2025/sequences/isi_16/len120/seq022_len120_s15_isi-1p0_0p0_16p0.json","0.25","true","","2133","https://mcdermottlab.mit.edu/mturk_stimuli/bjmedina/mem_exp_atexts_2025/mem_stim_4.wav","0","main","","","false","mem_stim_4.wav","false","-1","","1","correct_rejection"
"","","","","","html-keyboard-response","38","687597","0.0-10.0-1.3","https://mcdermottlab.mit.edu/mturk_stimuli/bjmedina/mem_exp_atexts_2025/sequences/isi_16/len120/seq022_len120_s15_isi-1p0_0p0_16p0.json","0.25","true","","null","<span style=""font-size: 40px"">+</span>","null","","","","","","","","","",""
"","","","","","audio-button-response","39","707220","0.0-10.0-2.3","https://mcdermottlab.mit.edu/mturk_stimuli/bjmedina/mem_exp_atexts_2025/sequences/isi_16/len120/seq022_len120_s15_isi-1p0_0p0_16p0.json","0.25","true","","3403","https://mcdermottlab.mit.edu/mturk_stimuli/bjmedina/mem_exp_atexts_2025/mem_stim_14.wav","0","main","","","false","mem_stim_14.wav","false","-1","","1","correct_rejection"
"","","","","","html-keyboard-response","40","707296","0.0-10.0-1.4","https://mcdermottlab.mit.edu/mturk_stimuli/bjmedina/mem_exp_atexts_2025/sequences/isi_16/len120/seq022_len120_s15_isi-1p0_0p0_16p0.json","0.25","true","","null","<span style=""font-size: 40px"">+</span>","null","","","","","","","","","",""
"","","","","","audio-button-response","41","710116","0.0-10.0-2.4","https://mcdermottlab.mit.edu/mturk_stimuli/bjmedina/mem_exp_atexts_2025/sequences/isi_16/len120/seq022_len120_s15_isi-1p0_0p0_16p0.json","0.25","true","","2816","https://mcdermottlab.mit.edu/mturk_stimuli/bjmedina/mem_exp_atexts_2025/mem_stim_14.wav","3","main","","","true","mem_stim_14.wav","true","0","","0","miss"
"","","","","","html-keyboard-response","42","710189","0.0-10.0-1.5","https://mcdermottlab.mit.edu/mturk_stimuli/bjmedina/mem_exp_atexts_2025/sequences/isi_16/len120/seq022_len120_s15_isi-1p0_0p0_16p0.json","0.25","true","","null","<span style=""font-size: 40px"">+</span>","null","","","","","","","","","",""
"","","","","","audio-button-response","43","732228","0.0-10.0-2.5","https://mcdermottlab.mit.edu/mturk_stimuli/bjmedina/mem_exp_atexts_2025/sequences/isi_16/len120/seq022_len120_s15_isi-1p0_0p0_16p0.json","0.25","true","","2635","https://mcdermottlab.mit.edu/mturk_stimuli/bjmedina/mem_exp_atexts_2025/mem_stim_30.wav","0","main","","","false","mem_stim_30.wav","false","-1","","1","correct_rejection"
"","","","","","html-keyboard-response","44","732299","0.0-10.0-1.6","https://mcdermottlab.mit.edu/mturk_stimuli/bjmedina/mem_exp_atexts_2025/sequences/isi_16/len120/seq022_len120_s15_isi-1p0_0p0_16p0.json","0.25","true","","null","<span style=""font-size: 40px"">+</span>","null","","","","","","","","","",""
"","","","","","audio-button-response","45","749532","0.0-10.0-2.6","https://mcdermottlab.mit.edu/mturk_stimuli/bjmedina/mem_exp_atexts_2025/sequences/isi_16/len120/seq022_len120_s15_isi-1p0_0p0_16p0.json","0.25","true","","3627","https://mcdermottlab.mit.edu/mturk_stimuli/bjmedina/mem_exp_atexts_2025/mem_stim_53.wav","0","main","","","false","mem_stim_53.wav","false","-1","","1","correct_rejection"
"","","","","","html-keyboard-response","46","749606","0.0-10.0-1.7","https://mcdermottlab.mit.edu/mturk_stimuli/bjmedina/mem_exp_atexts_2025/sequences/isi_16/len120/seq022_len120_s15_isi-1p0_0p0_16p0.json","0.25","true","","null","<span style=""font-size: 40px"">+</span>","null","","","","","","","","","",""
"","","","","","audio-button-response","47","768261","0.0-10.0-2.7","https://mcdermottlab.mit.edu/mturk_stimuli/bjmedina/mem_exp_atexts_2025/sequences/isi_16/len120/seq022_len120_s15_isi-1p0_0p0_16p0.json","0.25","true","","4021","https://mcdermottlab.mit.edu/mturk_stimuli/bjmedina/mem_exp_atexts_2025/mem_stim_67.wav","2","main","","","false","mem_stim_67.wav","false","-1","","1","correct_rejection"
