"success","timeout","failed_images","failed_audio","failed_video","trial_type","trial_index","time_elapsed","internal_node_id","sequence_file","pay","passed_hc","completion_code","view_history","rt","stimulus","response","stim_type","hc_answer","correct_hc","repeat","yt_id","catch","isi","type","is_correct","response_type"
"true","false","[]","[]","[]","preload","0","301","0.0-0.0","https://mcdermottlab.mit.edu/mturk_stimuli/bjmedina/mem_exp_atexts_2025/sequences/isi_16/len120/seq063_len120_s15_isi-1p0_0p0_16p0.json","11.28","true","t7fzgmcyvoa","","","","","","","","","","","","","",""
"","","","","","instructions","1","4847","0.0-1.0","https://mcdermottlab.mit.edu/mturk_stimuli/bjmedina/mem_exp_atexts_2025/sequences/isi_16/len120/seq063_len120_s15_isi-1p0_0p0_16p0.json","11.28","true","t7fzgmcyvoa","[{""page_index"":0,""viewing_time"":4538}]","4542","","","","","","","","","","","",""
"","","","","","instructions","2","9764","0.0-2.0","https://mcdermottlab.mit.edu/mturk_stimuli/bjmedina/mem_exp_atexts_2025/sequences/isi_16/len120/seq063_len120_s15_isi-1p0_0p0_16p0.json","11.28","true","t7fzgmcyvoa","[{""page_index"":0,""viewing_time"":4913}]","4915","","","","","","","","","","","",""
"","","","","","audio-button-response","3","30079","0.0-3.0-0.0","https://mcdermottlab.mit.edu/mturk_stimuli/bjmedina/mem_exp_atexts_2025/sequences/isi_16/len120/seq063_len120_s15_isi-1p0_0p0_16p0.json","11.28","true","t7fzgmcyvoa","","20117","https://mcdermottlab.mit.edu/bjmedina/experiments/mem_exp_v01/assets/noise_calib_stim.wav","0","","","","","","","","","",""
"","","","","","audio-button-response","4","33433","0.0-3.1-0.1","https://mcdermottlab.mit.edu/mturk_stimuli/bjmedina/mem_exp_atexts_2025/sequences/isi_16/len120/seq063_len120_s15_isi-1p0_0p0_16p0.json","11.28","true","t7fzgmcyvoa","","3339","https://mcdermottlab.mit.edu/bjmedina/experiments/mem_exp_v01/assets/noise_calib_stim.wav","1","","","","","","","","","",""
"","","","","","instructions","5","536112","0.0-4.0","https://mcdermottlab.mit.edu/mturk_stimuli/bjmedina/mem_exp_atexts_2025/sequences/isi_16/len120/seq063_len120_s15_isi-1p0_0p0_16p0.json","11.28","true","t7fzgmcyvoa","[{""page_index"":0,""viewing_time"":502670}]","502673","","","","","","","","","","","",""
"","","","","","audio-button-response","6","545881","0.0-5.0-0.0","https://mcdermottlab.mit.edu/mturk_stimuli/bjmedina/mem_exp_atexts_2025/sequences/isi_16/len120/seq063_len120_s15_isi-1p0_0p0_16p0.json","11.28","true","t7fzgmcyvoa","","5355","https://mcdermottlab.mit.edu/bjmedina/experiments/mem_exp_v01/assets/antiphase_HC_OSI.wav","1","hc","2","1","","","","","","",""
"","","","","","audio-button-response","7","554909","0.0-5.0-0.1","https://mcdermottlab.mit.edu/mturk_stimuli/bjmedina/mem_exp_atexts_2025/sequences/isi_16/len120/seq063_len120_s15_isi-1p0_0p0_16p0.json","11.28","true","t7fzgmcyvoa","","4341","https://mcdermottlab.mit.edu/bjmedina/experiments/mem_exp_v01/assets/antiphase_HC_SOI.wav","0","hc","1","1","","","","","","",""
"","","","","","audio-button-response","8","560621","0.0-5.0-0.2","https://mcdermottlab.mit.edu/mturk_stimuli/bjmedina/mem_exp_atexts_2025/sequences/isi_16/len120/seq063_len120_s15_isi-1p0_0p0_16p0.json","11.28","true","t7fzgmcyvoa","","3797","https://mcdermottlab.mit.edu/bjmedina/experiments/mem_exp_v01/assets/antiphase_HC_ISO.wav","1","hc","2","1","","","","","","",""
"","","","","","audio-button-response","9","565252","0.0-5.0-0.3","https://mcdermottlab.mit.edu/mturk_stimuli/bjmedina/mem_exp_atexts_2025/sequences/isi_16/len120/seq063_len120_s15_isi-1p0_0p0_16p0.json","11.28","true","t7fzgmcyvoa","","3968","https://mcdermottlab.mit.edu/bjmedina/experiments/mem_exp_v01/assets/antiphase_HC_OIS.wav","2","hc","3","1","","","","","","",""
"","","","","","audio-button-response","10","570080","0.0-5.0-0.4","https://mcdermottlab.mit.edu/mturk_stimuli/bjmedina/mem_exp_atexts_2025/sequences/isi_16/len120/seq063_len120_s15_isi-1p0_0p0_16p0.json","11.28","true","t7fzgmcyvoa","","4235","https://mcdermottlab.mit.edu/bjmedina/experiments/mem_exp_v01/assets/antiphase_HC_IOS.wav","2","hc","3","1","","","","","","",""
"","","","","","audio-button-response","11","573885","0.0-5.0-0.5","https://mcdermottlab.mit.edu/mturk_stimuli/bjmedina/mem_exp_atexts_2025/sequences/isi_16/len120/seq063_len120_s15_isi-1p0_0p0_16p0.json","11.28","true","t7fzgmcyvoa","","3189","https://mcdermottlab.mit.edu/bjmedina/experiments/mem_exp_v01/assets/antiphase_HC_SIO.wav","0","hc","1","1","","","","","","",""
"","","","","","html-keyboard-response","12","576771","0.0-6.0","https://mcdermottlab.mit.edu/mturk_stimuli/bjmedina/mem_exp_atexts_2025/sequences/isi_16/len120/seq063_len120_s15_isi-1p0_0p0_16p0.json","11.28","true","t7fzgmcyvoa","","2879","<h1>You have finished the LOUDNESS task!</h1> <p>Press space to continue</p>"," ","","","","","","","","","",""
"","","","","","instructions","13","721155","0.0-7.0","https://mcdermottlab.mit.edu/mturk_stimuli/bjmedina/mem_exp_atexts_2025/sequences/isi_16/len120/seq063_len120_s15_isi-1p0_0p0_16p0.json","11.28","true","t7fzgmcyvoa","[{""page_index"":0,""viewing_time"":30964},{""page_index"":1,""viewing_time"":9280},{""page_index"":2,""viewing_time"":102223},{""page_index"":3,""viewing_time"":1911}]","144381","","","","","","","","","","","",""
"","","","","","html-keyboard-response","14","721213","0.0-8.0-0.0","https://mcdermottlab.mit.edu/mturk_stimuli/bjmedina/mem_exp_atexts_2025/sequences/isi_16/len120/seq063_len120_s15_isi-1p0_0p0_16p0.json","11.28","true","t7fzgmcyvoa","","null","<span style=""font-size: 40px"">+</span>","null","fixation","","","","","","","","",""
"","","","","","audio-button-response","15","727164","0.0-8.0-1.0","https://mcdermottlab.mit.edu/mturk_stimuli/bjmedina/mem_exp_atexts_2025/sequences/isi_16/len120/seq063_len120_s15_isi-1p0_0p0_16p0.json","11.28","true","t7fzgmcyvoa","","4811","https://mcdermottlab.mit.edu/mturk_stimuli/bjmedina/mem_exp_v05/mem_stim_1023_f32.wav","0","demo","","","0","","","","","",""
"","","","","","html-keyboard-response","16","727218","0.0-8.0-0.1","https://mcdermottlab.mit.edu/mturk_stimuli/bjmedina/mem_exp_atexts_2025/sequences/isi_16/len120/seq063_len120_s15_isi-1p0_0p0_16p0.json","11.28","true","t7fzgmcyvoa","","null","<span style=""font-size: 40px"">+</span>","null","fixation","","","","","","","","",""
"","","","","","audio-button-response","17","730839","0.0-8.0-1.1","https://mcdermottlab.mit.edu/mturk_stimuli/bjmedina/mem_exp_atexts_2025/sequences/isi_16/len120/seq063_len120_s15_isi-1p0_0p0_16p0.json","11.28","true","t7fzgmcyvoa","","2421","https://mcdermottlab.mit.edu/mturk_stimuli/bjmedina/mem_exp_v05/mem_stim_1022_f32.wav","0","demo","","","0","","","","","",""
"","","","","","html-keyboard-response","18","730897","0.0-8.0-0.2","https://mcdermottlab.mit.edu/mturk_stimuli/bjmedina/mem_exp_atexts_2025/sequences/isi_16/len120/seq063_len120_s15_isi-1p0_0p0_16p0.json","11.28","true","t7fzgmcyvoa","","null","<span style=""font-size: 40px"">+</span>","null","fixation","","","","","","","","",""
"","","","","","audio-button-response","19","733944","0.0-8.0-1.2","https://mcdermottlab.mit.edu/mturk_stimuli/bjmedina/mem_exp_atexts_2025/sequences/isi_16/len120/seq063_len120_s15_isi-1p0_0p0_16p0.json","11.28","true","t7fzgmcyvoa","","3040","https://mcdermottlab.mit.edu/mturk_stimuli/bjmedina/mem_exp_v05/mem_stim_1022_f32.wav","3","demo","","","1","","","","","",""
"","","","","","html-keyboard-response","20","734000","0.0-8.0-0.3","https://mcdermottlab.mit.edu/mturk_stimuli/bjmedina/mem_exp_atexts_2025/sequences/isi_16/len120/seq063_len120_s15_isi-1p0_0p0_16p0.json","11.28","true","t7fzgmcyvoa","","null","<span style=""font-size: 40px"">+</span>","null","fixation","","","","","","","","",""
"","","","","","audio-button-response","21","737558","0.0-8.0-1.3","https://mcdermottlab.mit.edu/mturk_stimuli/bjmedina/mem_exp_atexts_2025/sequences/isi_16/len120/seq063_len120_s15_isi-1p0_0p0_16p0.json","11.28","true","t7fzgmcyvoa","","2432","https://mcdermottlab.mit.edu/mturk_stimuli/bjmedina/mem_exp_v05/mem_stim_1021_f32.wav","0","demo","","","0","","","","","",""
"","","","","","html-keyboard-response","22","737611","0.0-8.0-0.4","https://mcdermottlab.mit.edu/mturk_stimuli/bjmedina/mem_exp_atexts_2025/sequences/isi_16/len120/seq063_len120_s15_isi-1p0_0p0_16p0.json","11.28","true","t7fzgmcyvoa","","null","<span style=""font-size: 40px"">+</span>","null","fixation","","","","","","","","",""
"","","","","","audio-button-response","23","740165","0.0-8.0-1.4","https://mcdermottlab.mit.edu/mturk_stimuli/bjmedina/mem_exp_atexts_2025/sequences/isi_16/len120/seq063_len120_s15_isi-1p0_0p0_16p0.json","11.28","true","t7fzgmcyvoa","","2539","https://mcdermottlab.mit.edu/mturk_stimuli/bjmedina/mem_exp_v05/mem_stim_1023_f32.wav","0","demo","","","1","","","","","",""
"","","","","","html-keyboard-response","24","740223","0.0-8.0-0.5","https://mcdermottlab.mit.edu/mturk_stimuli/bjmedina/mem_exp_atexts_2025/sequences/isi_16/len120/seq063_len120_s15_isi-1p0_0p0_16p0.json","11.28","true","t7fzgmcyvoa","","null","<span style=""font-size: 40px"">+</span>","null","fixation","","","","","","","","",""
"","","","","","audio-button-response","25","744679","0.0-8.0-1.5","https://mcdermottlab.mit.edu/mturk_stimuli/bjmedina/mem_exp_atexts_2025/sequences/isi_16/len120/seq063_len120_s15_isi-1p0_0p0_16p0.json","11.28","true","t7fzgmcyvoa","","2859","https://mcdermottlab.mit.edu/mturk_stimuli/bjmedina/mem_exp_v05/mem_stim_1020_f32.wav","0","demo","","","0","","","","","",""
"","","","","","html-keyboard-response","26","744733","0.0-8.0-0.6","https://mcdermottlab.mit.edu/mturk_stimuli/bjmedina/mem_exp_atexts_2025/sequences/isi_16/len120/seq063_len120_s15_isi-1p0_0p0_16p0.json","11.28","true","t7fzgmcyvoa","","null","<span style=""font-size: 40px"">+</span>","null","fixation","","","","","","","","",""
"","","","","","audio-button-response","27","747628","0.0-8.0-1.6","https://mcdermottlab.mit.edu/mturk_stimuli/bjmedina/mem_exp_atexts_2025/sequences/isi_16/len120/seq063_len120_s15_isi-1p0_0p0_16p0.json","11.28","true","t7fzgmcyvoa","","2133","https://mcdermottlab.mit.edu/mturk_stimuli/bjmedina/mem_exp_v05/mem_stim_1019_f32.wav","0","demo","","","0","","","","","",""
"","","","","","html-keyboard-response","28","747686","0.0-8.0-0.7","https://mcdermottlab.mit.edu/mturk_stimuli/bjmedina/mem_exp_atexts_2025/sequences/isi_16/len120/seq063_len120_s15_isi-1p0_0p0_16p0.json","11.28","true","t7fzgmcyvoa","","null","<span style=""font-size: 40px"">+</span>","null","fixation","","","","","","","","",""
"","","","","","audio-button-response","29","750989","0.0-8.0-1.7","https://mcdermottlab.mit.edu/mturk_stimuli/bjmedina/mem_exp_atexts_2025/sequences/isi_16/len120/seq063_len120_s15_isi-1p0_0p0_16p0.json","11.28","true","t7fzgmcyvoa","","3296","https://mcdermottlab.mit.edu/mturk_stimuli/bjmedina/mem_exp_v05/mem_stim_1021_f32.wav","1","demo","","","1","","","","","",""
"","","","","","html-keyboard-response","30","753861","0.0-9.0","https://mcdermottlab.mit.edu/mturk_stimuli/bjmedina/mem_exp_atexts_2025/sequences/isi_16/len120/seq063_len120_s15_isi-1p0_0p0_16p0.json","11.28","true","t7fzgmcyvoa","","2869","<p>You are now ready to start the experiment. Press SPACE when you are ready to start.</p>"," ","","","","","","","","","",""
"","","","","","html-keyboard-response","31","753916","0.0-10.0-1.0","https://mcdermottlab.mit.edu/mturk_stimuli/bjmedina/mem_exp_atexts_2025/sequences/isi_16/len120/seq063_len120_s15_isi-1p0_0p0_16p0.json","11.28","true","t7fzgmcyvoa","","null","<span style=""font-size: 40px"">+</span>","null","","","","","","","","","",""
"","","","","","audio-button-response","32","757491","0.0-10.0-2.0","https://mcdermottlab.mit.edu/mturk_stimuli/bjmedina/mem_exp_atexts_2025/sequences/isi_16/len120/seq063_len120_s15_isi-1p0_0p0_16p0.json","11.28","true","t7fzgmcyvoa","","2453","https://mcdermottlab.mit.edu/mturk_stimuli/bjmedina/mem_exp_atexts_2025/mem_stim_73.wav","0","main","","","false","mem_stim_73.wav","false","-1","","1","correct_rejection"
"","","","","","html-keyboard-response","33","757570","0.0-10.0-1.1","https://mcdermottlab.mit.edu/mturk_stimuli/bjmedina/mem_exp_atexts_2025/sequences/isi_16/len120/seq063_len120_s15_isi-1p0_0p0_16p0.json","11.28","true","t7fzgmcyvoa","","null","<span style=""font-size: 40px"">+</span>","null","","","","","","","","","",""
"","","","","","audio-button-response","34","760765","0.0-10.0-2.1","https://mcdermottlab.mit.edu/mturk_stimuli/bjmedina/mem_exp_atexts_2025/sequences/isi_16/len120/seq063_len120_s15_isi-1p0_0p0_16p0.json","11.28","true","t7fzgmcyvoa","","2400","https://mcdermottlab.mit.edu/mturk_stimuli/bjmedina/mem_exp_atexts_2025/mem_stim_2.wav","0","main","","","false","mem_stim_2.wav","false","-1","","1","correct_rejection"
"","","","","","html-keyboard-response","35","760835","0.0-10.0-1.2","https://mcdermottlab.mit.edu/mturk_stimuli/bjmedina/mem_exp_atexts_2025/sequences/isi_16/len120/seq063_len120_s15_isi-1p0_0p0_16p0.json","11.28","true","t7fzgmcyvoa","","null","<span style=""font-size: 40px"">+</span>","null","","","","","","","","","",""
"","","","","","audio-button-response","36","763900","0.0-10.0-2.2","https://mcdermottlab.mit.edu/mturk_stimuli/bjmedina/mem_exp_atexts_2025/sequences/isi_16/len120/seq063_len120_s15_isi-1p0_0p0_16p0.json","11.28","true","t7fzgmcyvoa","","2421","https://mcdermottlab.mit.edu/mturk_stimuli/bjmedina/mem_exp_atexts_2025/mem_stim_20.wav","0","main","","","false","mem_stim_20.wav","false","-1","","1","correct_rejection"
"","","","","","html-keyboard-response","37","763978","0.0-10.0-1.3","https://mcdermottlab.mit.edu/mturk_stimuli/bjmedina/mem_exp_atexts_2025/sequences/isi_16/len120/seq063_len120_s15_isi-1p0_0p0_16p0.json","11.28","true","t7fzgmcyvoa","","null","<span style=""font-size: 40px"">+</span>","null","","","","","","","","","",""
"","","","","","audio-button-response","38","766631","0.0-10.0-2.3","https://mcdermottlab.mit.edu/mturk_stimuli/bjmedina/mem_exp_atexts_2025/sequences/isi_16/len120/seq063_len120_s15_isi-1p0_0p0_16p0.json","11.28","true","t7fzgmcyvoa","","2645","https://mcdermottlab.mit.edu/mturk_stimuli/bjmedina/mem_exp_atexts_2025/mem_stim_20.wav","3","main","","","true","mem_stim_20.wav","true","0","","0","miss"
"","","","","","html-keyboard-response","39","766706","0.0-10.0-1.4","https://mcdermottlab.mit.edu/mturk_stimuli/bjmedina/mem_exp_atexts_2025/sequences/isi_16/len120/seq063_len120_s15_isi-1p0_0p0_16p0.json","11.28","true","t7fzgmcyvoa","","null","<span style=""font-size: 40px"">+</span>","null","","","","","","","","","",""
"","","","","","audio-button-response","40","770158","0.0-10.0-2.4","https://mcdermottlab.mit.edu/mturk_stimuli/bjmedina/mem_exp_atexts_2025/sequences/isi_16/len120/seq063_len120_s15_isi-1p0_0p0_16p0.json","11.28","true","t7fzgmcyvoa","","2507","https://mcdermottlab.mit.edu/mturk_stimuli/bjmedina/mem_exp_atexts_2025/mem_stim_42.wav","0","main","","","false","mem_stim_42.wav","false","-1","","1","correct_rejection"
"","","","","","html-keyboard-response","41","770226","0.0-10.0-1.5","https://mcdermottlab.mit.edu/mturk_stimuli/bjmedina/mem_exp_atexts_2025/sequences/isi_16/len120/seq063_len120_s15_isi-1p0_0p0_16p0.json","11.28","true","t7fzgmcyvoa","","null","<span style=""font-size: 40px"">+</span>","null","","","","","","","","","",""
"","","","","","audio-button-response","42","773470","0.0-10.0-2.5","https://mcdermottlab.mit.edu/mturk_stimuli/bjmedina/mem_exp_atexts_2025/sequences/isi_16/len120/seq063_len120_s15_isi-1p0_0p0_16p0.json","11.28","true","t7fzgmcyvoa","","2421","https://mcdermottlab.mit.edu/mturk_stimuli/bjmedina/mem_exp_atexts_2025/mem_stim_75.wav","0","main","","","false","mem_stim_75.wav","false","-1","","1","correct_rejection"
"","","","","","html-keyboard-response","43","773540","0.0-10.0-1.6","https://mcdermottlab.mit.edu/mturk_stimuli/bjmedina/mem_exp_atexts_2025/sequences/isi_16/len120/seq063_len120_s15_isi-1p0_0p0_16p0.json","11.28","true","t7fzgmcyvoa","","null","<span style=""font-size: 40px"">+</span>","null","","","","","","","","","",""
"","","","","","audio-button-response","44","776773","0.0-10.0-2.6","https://mcdermottlab.mit.edu/mturk_stimuli/bjmedina/mem_exp_atexts_2025/sequences/isi_16/len120/seq063_len120_s15_isi-1p0_0p0_16p0.json","11.28","true","t7fzgmcyvoa","","2528","https://mcdermottlab.mit.edu/mturk_stimuli/bjmedina/mem_exp_atexts_2025/mem_stim_29.wav","0","main","","","false","mem_stim_29.wav","false","-1","","1","correct_rejection"
"","","","","","html-keyboard-response","45","776841","0.0-10.0-1.7","https://mcdermottlab.mit.edu/mturk_stimuli/bjmedina/mem_exp_atexts_2025/sequences/isi_16/len120/seq063_len120_s15_isi-1p0_0p0_16p0.json","11.28","true","t7fzgmcyvoa","","null","<span style=""font-size: 40px"">+</span>","null","","","","","","","","","",""
"","","","","","audio-button-response","46","779306","0.0-10.0-2.7","https://mcdermottlab.mit.edu/mturk_stimuli/bjmedina/mem_exp_atexts_2025/sequences/isi_16/len120/seq063_len120_s15_isi-1p0_0p0_16p0.json","11.28","true","t7fzgmcyvoa","","2464","https://mcdermottlab.mit.edu/mturk_stimuli/bjmedina/mem_exp_atexts_2025/mem_stim_29.wav","3","main","","","true","mem_stim_29.wav","true","0","","0","miss"
"","","","","","html-keyboard-response","47","779381","0.0-10.0-1.8","https://mcdermottlab.mit.edu/mturk_stimuli/bjmedina/mem_exp_atexts_2025/sequences/isi_16/len120/seq063_len120_s15_isi-1p0_0p0_16p0.json","11.28","true","t7fzgmcyvoa","","null","<span style=""font-size: 40px"">+</span>","null","","","","","","","","","",""
"","","","","","audio-button-response","48","782580","0.0-10.0-2.8","https://mcdermottlab.mit.edu/mturk_stimuli/bjmedina/mem_exp_atexts_2025/sequences/isi_16/len120/seq063_len120_s15_isi-1p0_0p0_16p0.json","11.28","true","t7fzgmcyvoa","","2475","https://mcdermottlab.mit.edu/mturk_stimuli/bjmedina/mem_exp_atexts_2025/mem_stim_69.wav","0","main","","","false","mem_stim_69.wav","false","-1","","1","correct_rejection"
"","","","","","html-keyboard-response","49","782656","0.0-10.0-1.9","https://mcdermottlab.mit.edu/mturk_stimuli/bjmedina/mem_exp_atexts_2025/sequences/isi_16/len120/seq063_len120_s15_isi-1p0_0p0_16p0.json","11.28","true","t7fzgmcyvoa","","null","<span style=""font-size: 40px"">+</span>","null","","","","","","","","","",""
"","","","","","audio-button-response","50","785573","0.0-10.0-2.9","https://mcdermottlab.mit.edu/mturk_stimuli/bjmedina/mem_exp_atexts_2025/sequences/isi_16/len120/seq063_len120_s15_isi-1p0_0p0_16p0.json","11.28","true","t7fzgmcyvoa","","2144","https://mcdermottlab.mit.edu/mturk_stimuli/bjmedina/mem_exp_atexts_2025/mem_stim_45.wav","0","main","","","false","mem_stim_45.wav","false","-1","","1","correct_rejection"
"","","","","","html-keyboard-response","51","785641","0.0-10.0-1.10","https://mcdermottlab.mit.edu/mturk_stimuli/bjmedina/mem_exp_atexts_2025/sequences/isi_16/len120/seq063_len120_s15_isi-1p0_0p0_16p0.json","11.28","true","t7fzgmcyvoa","","null","<span style=""font-size: 40px"">+</span>","null","","","","","","","","","",""
"","","","","","audio-button-response","52","788782","0.0-10.0-2.10","https://mcdermottlab.mit.edu/mturk_stimuli/bjmedina/mem_exp_atexts_2025/sequences/isi_16/len120/seq063_len120_s15_isi-1p0_0p0_16p0.json","11.28","true","t7fzgmcyvoa","","2368","https://mcdermottlab.mit.edu/mturk_stimuli/bjmedina/mem_exp_atexts_2025/mem_stim_78.wav","0","main","","","false","mem_stim_78.wav","false","-1","","1","correct_rejection"
"","","","","","html-keyboard-response","53","788853","0.0-10.0-1.11","https://mcdermottlab.mit.edu/mturk_stimuli/bjmedina/mem_exp_atexts_2025/sequences/isi_16/len120/seq063_len120_s15_isi-1p0_0p0_16p0.json","11.28","true","t7fzgmcyvoa","","null","<span style=""font-size: 40px"">+</span>","null","","","","","","","","","",""
"","","","","","audio-button-response","54","792229","0.0-10.0-2.11","https://mcdermottlab.mit.edu/mturk_stimuli/bjmedina/mem_exp_atexts_2025/sequences/isi_16/len120/seq063_len120_s15_isi-1p0_0p0_16p0.json","11.28","true","t7fzgmcyvoa","","2549","https://mcdermottlab.mit.edu/mturk_stimuli/bjmedina/mem_exp_atexts_2025/mem_stim_43.wav","0","main","","","false","mem_stim_43.wav","false","-1","","1","correct_rejection"
"","","","","","html-keyboard-response","55","792304","0.0-10.0-1.12","https://mcdermottlab.mit.edu/mturk_stimuli/bjmedina/mem_exp_atexts_2025/sequences/isi_16/len120/seq063_len120_s15_isi-1p0_0p0_16p0.json","11.28","true","t7fzgmcyvoa","","null","<span style=""font-size: 40px"">+</span>","null","","","","","","","","","",""
"","","","","","audio-button-response","56","796477","0.0-10.0-2.12","https://mcdermottlab.mit.edu/mturk_stimuli/bjmedina/mem_exp_atexts_2025/sequences/isi_16/len120/seq063_len120_s15_isi-1p0_0p0_16p0.json","11.28","true","t7fzgmcyvoa","","2507","https://mcdermottlab.mit.edu/mturk_stimuli/bjmedina/mem_exp_atexts_2025/mem_stim_48.wav","0","main","","","false","mem_stim_48.wav","false","-1","","1","correct_rejection"
"","","","","","html-keyboard-response","57","796551","0.0-10.0-1.13","https://mcdermottlab.mit.edu/mturk_stimuli/bjmedina/mem_exp_atexts_2025/sequences/isi_16/len120/seq063_len120_s15_isi-1p0_0p0_16p0.json","11.28","true","t7fzgmcyvoa","","null","<span style=""font-size: 40px"">+</span>","null","","","","","","","","","",""
"","","","","","audio-button-response","58","802413","0.0-10.0-2.13","https://mcdermottlab.mit.edu/mturk_stimuli/bjmedina/mem_exp_atexts_2025/sequences/isi_16/len120/seq063_len120_s15_isi-1p0_0p0_16p0.json","11.28","true","t7fzgmcyvoa","","2283","https://mcdermottlab.mit.edu/mturk_stimuli/bjmedina/mem_exp_atexts_2025/mem_stim_19.wav","0","main","","","false","mem_stim_19.wav","false","-1","","1","correct_rejection"
"","","","","","html-keyboard-response","59","802483","0.0-10.0-1.14","https://mcdermottlab.mit.edu/mturk_stimuli/bjmedina/mem_exp_atexts_2025/sequences/isi_16/len120/seq063_len120_s15_isi-1p0_0p0_16p0.json","11.28","true","t7fzgmcyvoa","","null","<span style=""font-size: 40px"">+</span>","null","","","","","","","","","",""
"","","","","","audio-button-response","60","809140","0.0-10.0-2.14","https://mcdermottlab.mit.edu/mturk_stimuli/bjmedina/mem_exp_atexts_2025/sequences/isi_16/len120/seq063_len120_s15_isi-1p0_0p0_16p0.json","11.28","true","t7fzgmcyvoa","","2624","https://mcdermottlab.mit.edu/mturk_stimuli/bjmedina/mem_exp_atexts_2025/mem_stim_52.wav","0","main","","","false","mem_stim_52.wav","false","-1","","1","correct_rejection"
"","","","","","html-keyboard-response","61","809217","0.0-10.0-1.15","https://mcdermottlab.mit.edu/mturk_stimuli/bjmedina/mem_exp_atexts_2025/sequences/isi_16/len120/seq063_len120_s15_isi-1p0_0p0_16p0.json","11.28","true","t7fzgmcyvoa","","null","<span style=""font-size: 40px"">+</span>","null","","","","","","","","","",""
"","","","","","audio-button-response","62","819638","0.0-10.0-2.15","https://mcdermottlab.mit.edu/mturk_stimuli/bjmedina/mem_exp_atexts_2025/sequences/isi_16/len120/seq063_len120_s15_isi-1p0_0p0_16p0.json","11.28","true","t7fzgmcyvoa","","2869","https://mcdermottlab.mit.edu/mturk_stimuli/bjmedina/mem_exp_atexts_2025/mem_stim_15.wav","0","main","","","false","mem_stim_15.wav","false","-1","","1","correct_rejection"
"","","","","","html-keyboard-response","63","819715","0.0-10.0-1.16","https://mcdermottlab.mit.edu/mturk_stimuli/bjmedina/mem_exp_atexts_2025/sequences/isi_16/len120/seq063_len120_s15_isi-1p0_0p0_16p0.json","11.28","true","t7fzgmcyvoa","","null","<span style=""font-size: 40px"">+</span>","null","","","","","","","","","",""
"","","","","","audio-button-response","64","829542","0.0-10.0-2.16","https://mcdermottlab.mit.edu/mturk_stimuli/bjmedina/mem_exp_atexts_2025/sequences/isi_16/len120/seq063_len120_s15_isi-1p0_0p0_16p0.json","11.28","true","t7fzgmcyvoa","","2560","https://mcdermottlab.mit.edu/mturk_stimuli/bjmedina/mem_exp_atexts_2025/mem_stim_24.wav","0","main","","","false","mem_stim_24.wav","false","-1","","1","correct_rejection"
"","","","","","html-keyboard-response","65","829611","0.0-10.0-1.17","https://mcdermottlab.mit.edu/mturk_stimuli/bjmedina/mem_exp_atexts_2025/sequences/isi_16/len120/seq063_len120_s15_isi-1p0_0p0_16p0.json","11.28","true","t7fzgmcyvoa","","null","<span style=""font-size: 40px"">+</span>","null","","","","","","","","","",""
"","","","","","audio-button-response","66","832134","0.0-10.0-2.17","https://mcdermottlab.mit.edu/mturk_stimuli/bjmedina/mem_exp_atexts_2025/sequences/isi_16/len120/seq063_len120_s15_isi-1p0_0p0_16p0.json","11.28","true","t7fzgmcyvoa","","2517","https://mcdermottlab.mit.edu/mturk_stimuli/bjmedina/mem_exp_atexts_2025/mem_stim_24.wav","3","main","","","true","mem_stim_24.wav","true","0","","0","miss"
"","","","","","html-keyboard-response","67","832203","0.0-10.0-1.18","https://mcdermottlab.mit.edu/mturk_stimuli/bjmedina/mem_exp_atexts_2025/sequences/isi_16/len120/seq063_len120_s15_isi-1p0_0p0_16p0.json","11.28","true","t7fzgmcyvoa","","null","<span style=""font-size: 40px"">+</span>","null","","","","","","","","","",""
"","","","","","audio-button-response","68","843041","0.0-10.0-2.18","https://mcdermottlab.mit.edu/mturk_stimuli/bjmedina/mem_exp_atexts_2025/sequences/isi_16/len120/seq063_len120_s15_isi-1p0_0p0_16p0.json","11.28","true","t7fzgmcyvoa","","3008","https://mcdermottlab.mit.edu/mturk_stimuli/bjmedina/mem_exp_atexts_2025/mem_stim_25.wav","0","main","","","false","mem_stim_25.wav","false","-1","","1","correct_rejection"
"","","","","","html-keyboard-response","69","843120","0.0-10.0-1.19","https://mcdermottlab.mit.edu/mturk_stimuli/bjmedina/mem_exp_atexts_2025/sequences/isi_16/len120/seq063_len120_s15_isi-1p0_0p0_16p0.json","11.28","true","t7fzgmcyvoa","","null","<span style=""font-size: 40px"">+</span>","null","","","","","","","","","",""
"","","","","","audio-button-response","70","845602","0.0-10.0-2.19","https://mcdermottlab.mit.edu/mturk_stimuli/bjmedina/mem_exp_atexts_2025/sequences/isi_16/len120/seq063_len120_s15_isi-1p0_0p0_16p0.json","11.28","true","t7fzgmcyvoa","","2464","https://mcdermottlab.mit.edu/mturk_stimuli/bjmedina/mem_exp_atexts_2025/mem_stim_25.wav","3","main","","","true","mem_stim_25.wav","true","0","","0","miss"
"","","","","","html-keyboard-response","71","845673","0.0-10.0-1.20","https://mcdermottlab.mit.edu/mturk_stimuli/bjmedina/mem_exp_atexts_2025/sequences/isi_16/len120/seq063_len120_s15_isi-1p0_0p0_16p0.json","11.28","true","t7fzgmcyvoa","","null","<span style=""font-size: 40px"">+</span>","null","","","","","","","","","",""
"","","","","","audio-button-response","72","855119","0.0-10.0-2.20","https://mcdermottlab.mit.edu/mturk_stimuli/bjmedina/mem_exp_atexts_2025/sequences/isi_16/len120/seq063_len120_s15_isi-1p0_0p0_16p0.json","11.28","true","t7fzgmcyvoa","","2539","https://mcdermottlab.mit.edu/mturk_stimuli/bjmedina/mem_exp_atexts_2025/mem_stim_34.wav","0","main","","","false","mem_stim_34.wav","false","-1","","1","correct_rejection"
"","","","","","html-keyboard-response","73","855188","0.0-10.0-1.21","https://mcdermottlab.mit.edu/mturk_stimuli/bjmedina/mem_exp_atexts_2025/sequences/isi_16/len120/seq063_len120_s15_isi-1p0_0p0_16p0.json","11.28","true","t7fzgmcyvoa","","null","<span style=""font-size: 40px"">+</span>","null","","","","","","","","","",""
"","","","","","audio-button-response","74","857755","0.0-10.0-2.21","https://mcdermottlab.mit.edu/mturk_stimuli/bjmedina/mem_exp_atexts_2025/sequences/isi_16/len120/seq063_len120_s15_isi-1p0_0p0_16p0.json","11.28","true","t7fzgmcyvoa","","2560","https://mcdermottlab.mit.edu/mturk_stimuli/bjmedina/mem_exp_atexts_2025/mem_stim_42.wav","3","main","","","true","mem_stim_42.wav","false","16","","0","miss"
"","","","","","html-keyboard-response","75","857827","0.0-10.0-1.22","https://mcdermottlab.mit.edu/mturk_stimuli/bjmedina/mem_exp_atexts_2025/sequences/isi_16/len120/seq063_len120_s15_isi-1p0_0p0_16p0.json","11.28","true","t7fzgmcyvoa","","null","<span style=""font-size: 40px"">+</span>","null","","","","","","","","","",""
"","","","","","audio-button-response","76","862612","0.0-10.0-2.22","https://mcdermottlab.mit.edu/mturk_stimuli/bjmedina/mem_exp_atexts_2025/sequences/isi_16/len120/seq063_len120_s15_isi-1p0_0p0_16p0.json","11.28","true","t7fzgmcyvoa","","2389","https://mcdermottlab.mit.edu/mturk_stimuli/bjmedina/mem_exp_atexts_2025/mem_stim_11.wav","0","main","","","false","mem_stim_11.wav","false","-1","","1","correct_rejection"
"","","","","","html-keyboard-response","77","862698","0.0-10.0-1.23","https://mcdermottlab.mit.edu/mturk_stimuli/bjmedina/mem_exp_atexts_2025/sequences/isi_16/len120/seq063_len120_s15_isi-1p0_0p0_16p0.json","11.28","true","t7fzgmcyvoa","","null","<span style=""font-size: 40px"">+</span>","null","","","","","","","","","",""
"","","","","","audio-button-response","78","868103","0.0-10.0-2.23","https://mcdermottlab.mit.edu/mturk_stimuli/bjmedina/mem_exp_atexts_2025/sequences/isi_16/len120/seq063_len120_s15_isi-1p0_0p0_16p0.json","11.28","true","t7fzgmcyvoa","","2763","https://mcdermottlab.mit.edu/mturk_stimuli/bjmedina/mem_exp_atexts_2025/mem_stim_47.wav","1","main","","","false","mem_stim_47.wav","false","-1","","0","false_alarm"
"","","","","","html-keyboard-response","79","868172","0.0-10.0-1.24","https://mcdermottlab.mit.edu/mturk_stimuli/bjmedina/mem_exp_atexts_2025/sequences/isi_16/len120/seq063_len120_s15_isi-1p0_0p0_16p0.json","11.28","true","t7fzgmcyvoa","","null","<span style=""font-size: 40px"">+</span>","null","","","","","","","","","",""
"","","","","","audio-button-response","80","874671","0.0-10.0-2.24","https://mcdermottlab.mit.edu/mturk_stimuli/bjmedina/mem_exp_atexts_2025/sequences/isi_16/len120/seq063_len120_s15_isi-1p0_0p0_16p0.json","11.28","true","t7fzgmcyvoa","","2635","https://mcdermottlab.mit.edu/mturk_stimuli/bjmedina/mem_exp_atexts_2025/mem_stim_26.wav","1","main","","","false","mem_stim_26.wav","false","-1","","0","false_alarm"
"","","","","","html-keyboard-response","81","874749","0.0-10.0-1.25","https://mcdermottlab.mit.edu/mturk_stimuli/bjmedina/mem_exp_atexts_2025/sequences/isi_16/len120/seq063_len120_s15_isi-1p0_0p0_16p0.json","11.28","true","t7fzgmcyvoa","","null","<span style=""font-size: 40px"">+</span>","null","","","","","","","","","",""
"","","","","","audio-button-response","82","877143","0.0-10.0-2.25","https://mcdermottlab.mit.edu/mturk_stimuli/bjmedina/mem_exp_atexts_2025/sequences/isi_16/len120/seq063_len120_s15_isi-1p0_0p0_16p0.json","11.28","true","t7fzgmcyvoa","","2389","https://mcdermottlab.mit.edu/mturk_stimuli/bjmedina/mem_exp_atexts_2025/mem_stim_26.wav","3","main","","","true","mem_stim_26.wav","true","0","","0","miss"
"","","","","","html-keyboard-response","83","877219","0.0-10.0-1.26","https://mcdermottlab.mit.edu/mturk_stimuli/bjmedina/mem_exp_atexts_2025/sequences/isi_16/len120/seq063_len120_s15_isi-1p0_0p0_16p0.json","11.28","true","t7fzgmcyvoa","","null","<span style=""font-size: 40px"">+</span>","null","","","","","","","","","",""
"","","","","","audio-button-response","84","879647","0.0-10.0-2.26","https://mcdermottlab.mit.edu/mturk_stimuli/bjmedina/mem_exp_atexts_2025/sequences/isi_16/len120/seq063_len120_s15_isi-1p0_0p0_16p0.json","11.28","true","t7fzgmcyvoa","","2411","https://mcdermottlab.mit.edu/mturk_stimuli/bjmedina/mem_exp_atexts_2025/mem_stim_45.wav","3","main","","","true","mem_stim_45.wav","false","16","","0","miss"
"","","","","","html-keyboard-response","85","879726","0.0-10.0-1.27","https://mcdermottlab.mit.edu/mturk_stimuli/bjmedina/mem_exp_atexts_2025/sequences/isi_16/len120/seq063_len120_s15_isi-1p0_0p0_16p0.json","11.28","true","t7fzgmcyvoa","","null","<span style=""font-size: 40px"">+</span>","null","","","","","","","","","",""
"","","","","","audio-button-response","86","883389","0.0-10.0-2.27","https://mcdermottlab.mit.edu/mturk_stimuli/bjmedina/mem_exp_atexts_2025/sequences/isi_16/len120/seq063_len120_s15_isi-1p0_0p0_16p0.json","11.28","true","t7fzgmcyvoa","","2453","https://mcdermottlab.mit.edu/mturk_stimuli/bjmedina/mem_exp_atexts_2025/mem_stim_61.wav","1","main","","","false","mem_stim_61.wav","false","-1","","0","false_alarm"
"","","","","","html-keyboard-response","87","883466","0.0-10.0-1.28","https://mcdermottlab.mit.edu/mturk_stimuli/bjmedina/mem_exp_atexts_2025/sequences/isi_16/len120/seq063_len120_s15_isi-1p0_0p0_16p0.json","11.28","true","t7fzgmcyvoa","","null","<span style=""font-size: 40px"">+</span>","null","","","","","","","","","",""
"","","","","","audio-button-response","88","885983","0.0-10.0-2.28","https://mcdermottlab.mit.edu/mturk_stimuli/bjmedina/mem_exp_atexts_2025/sequences/isi_16/len120/seq063_len120_s15_isi-1p0_0p0_16p0.json","11.28","true","t7fzgmcyvoa","","2507","https://mcdermottlab.mit.edu/mturk_stimuli/bjmedina/mem_exp_atexts_2025/mem_stim_43.wav","3","main","","","true","mem_stim_43.wav","false","16","","0","miss"
"","","","","","html-keyboard-response","89","886053","0.0-10.0-1.29","https://mcdermottlab.mit.edu/mturk_stimuli/bjmedina/mem_exp_atexts_2025/sequences/isi_16/len120/seq063_len120_s15_isi-1p0_0p0_16p0.json","11.28","true","t7fzgmcyvoa","","null","<span style=""font-size: 40px"">+</span>","null","","","","","","","","","",""
"","","","","","audio-button-response","90","888445","0.0-10.0-2.29","https://mcdermottlab.mit.edu/mturk_stimuli/bjmedina/mem_exp_atexts_2025/sequences/isi_16/len120/seq063_len120_s15_isi-1p0_0p0_16p0.json","11.28","true","t7fzgmcyvoa","","2379","https://mcdermottlab.mit.edu/mturk_stimuli/bjmedina/mem_exp_atexts_2025/mem_stim_48.wav","3","main","","","true","mem_stim_48.wav","false","16","","0","miss"
"","","","","","html-keyboard-response","91","888542","0.0-10.0-1.30","https://mcdermottlab.mit.edu/mturk_stimuli/bjmedina/mem_exp_atexts_2025/sequences/isi_16/len120/seq063_len120_s15_isi-1p0_0p0_16p0.json","11.28","true","t7fzgmcyvoa","","null","<span style=""font-size: 40px"">+</span>","null","","","","","","","","","",""
"","","","","","audio-button-response","92","895290","0.0-10.0-2.30","https://mcdermottlab.mit.edu/mturk_stimuli/bjmedina/mem_exp_atexts_2025/sequences/isi_16/len120/seq063_len120_s15_isi-1p0_0p0_16p0.json","11.28","true","t7fzgmcyvoa","","3371","https://mcdermottlab.mit.edu/mturk_stimuli/bjmedina/mem_exp_atexts_2025/mem_stim_5.wav","1","main","","","false","mem_stim_5.wav","false","-1","","0","false_alarm"
"","","","","","html-keyboard-response","93","895369","0.0-10.0-1.31","https://mcdermottlab.mit.edu/mturk_stimuli/bjmedina/mem_exp_atexts_2025/sequences/isi_16/len120/seq063_len120_s15_isi-1p0_0p0_16p0.json","11.28","true","t7fzgmcyvoa","","null","<span style=""font-size: 40px"">+</span>","null","","","","","","","","","",""
"","","","","","audio-button-response","94","898023","0.0-10.0-2.31","https://mcdermottlab.mit.edu/mturk_stimuli/bjmedina/mem_exp_atexts_2025/sequences/isi_16/len120/seq063_len120_s15_isi-1p0_0p0_16p0.json","11.28","true","t7fzgmcyvoa","","2645","https://mcdermottlab.mit.edu/mturk_stimuli/bjmedina/mem_exp_atexts_2025/mem_stim_52.wav","1","main","","","true","mem_stim_52.wav","false","16","","1","hit"
"","","","","","html-keyboard-response","95","898109","0.0-10.0-1.32","https://mcdermottlab.mit.edu/mturk_stimuli/bjmedina/mem_exp_atexts_2025/sequences/isi_16/len120/seq063_len120_s15_isi-1p0_0p0_16p0.json","11.28","true","t7fzgmcyvoa","","null","<span style=""font-size: 40px"">+</span>","null","","","","","","","","","",""
"","","","","","audio-button-response","96","902095","0.0-10.0-2.32","https://mcdermottlab.mit.edu/mturk_stimuli/bjmedina/mem_exp_atexts_2025/sequences/isi_16/len120/seq063_len120_s15_isi-1p0_0p0_16p0.json","11.28","true","t7fzgmcyvoa","","2389","https://mcdermottlab.mit.edu/mturk_stimuli/bjmedina/mem_exp_atexts_2025/mem_stim_41.wav","0","main","","","false","mem_stim_41.wav","false","-1","","1","correct_rejection"
"","","","","","html-keyboard-response","97","902176","0.0-10.0-1.33","https://mcdermottlab.mit.edu/mturk_stimuli/bjmedina/mem_exp_atexts_2025/sequences/isi_16/len120/seq063_len120_s15_isi-1p0_0p0_16p0.json","11.28","true","t7fzgmcyvoa","","null","<span style=""font-size: 40px"">+</span>","null","","","","","","","","","",""
"","","","","","audio-button-response","98","908783","0.0-10.0-2.33","https://mcdermottlab.mit.edu/mturk_stimuli/bjmedina/mem_exp_atexts_2025/sequences/isi_16/len120/seq063_len120_s15_isi-1p0_0p0_16p0.json","11.28","true","t7fzgmcyvoa","","2389","https://mcdermottlab.mit.edu/mturk_stimuli/bjmedina/mem_exp_atexts_2025/mem_stim_9.wav","0","main","","","false","mem_stim_9.wav","false","-1","","1","correct_rejection"
"","","","","","html-keyboard-response","99","908879","0.0-10.0-1.34","https://mcdermottlab.mit.edu/mturk_stimuli/bjmedina/mem_exp_atexts_2025/sequences/isi_16/len120/seq063_len120_s15_isi-1p0_0p0_16p0.json","11.28","true","t7fzgmcyvoa","","null","<span style=""font-size: 40px"">+</span>","null","","","","","","","","","",""
"","","","","","audio-button-response","100","914101","0.0-10.0-2.34","https://mcdermottlab.mit.edu/mturk_stimuli/bjmedina/mem_exp_atexts_2025/sequences/isi_16/len120/seq063_len120_s15_isi-1p0_0p0_16p0.json","11.28","true","t7fzgmcyvoa","","2464","https://mcdermottlab.mit.edu/mturk_stimuli/bjmedina/mem_exp_atexts_2025/mem_stim_56.wav","0","main","","","false","mem_stim_56.wav","false","-1","","1","correct_rejection"
"","","","","","html-keyboard-response","101","914180","0.0-10.0-1.35","https://mcdermottlab.mit.edu/mturk_stimuli/bjmedina/mem_exp_atexts_2025/sequences/isi_16/len120/seq063_len120_s15_isi-1p0_0p0_16p0.json","11.28","true","t7fzgmcyvoa","","null","<span style=""font-size: 40px"">+</span>","null","","","","","","","","","",""
"","","","","","audio-button-response","102","922520","0.0-10.0-2.35","https://mcdermottlab.mit.edu/mturk_stimuli/bjmedina/mem_exp_atexts_2025/sequences/isi_16/len120/seq063_len120_s15_isi-1p0_0p0_16p0.json","11.28","true","t7fzgmcyvoa","","2389","https://mcdermottlab.mit.edu/mturk_stimuli/bjmedina/mem_exp_atexts_2025/mem_stim_66.wav","0","main","","","false","mem_stim_66.wav","false","-1","","1","correct_rejection"
"","","","","","html-keyboard-response","103","922601","0.0-10.0-1.36","https://mcdermottlab.mit.edu/mturk_stimuli/bjmedina/mem_exp_atexts_2025/sequences/isi_16/len120/seq063_len120_s15_isi-1p0_0p0_16p0.json","11.28","true","t7fzgmcyvoa","","null","<span style=""font-size: 40px"">+</span>","null","","","","","","","","","",""
"","","","","","audio-button-response","104","930628","0.0-10.0-2.36","https://mcdermottlab.mit.edu/mturk_stimuli/bjmedina/mem_exp_atexts_2025/sequences/isi_16/len120/seq063_len120_s15_isi-1p0_0p0_16p0.json","11.28","true","t7fzgmcyvoa","","2315","https://mcdermottlab.mit.edu/mturk_stimuli/bjmedina/mem_exp_atexts_2025/mem_stim_6.wav","0","main","","","false","mem_stim_6.wav","false","-1","","1","correct_rejection"
"","","","","","html-keyboard-response","105","930708","0.0-10.0-1.37","https://mcdermottlab.mit.edu/mturk_stimuli/bjmedina/mem_exp_atexts_2025/sequences/isi_16/len120/seq063_len120_s15_isi-1p0_0p0_16p0.json","11.28","true","t7fzgmcyvoa","","null","<span style=""font-size: 40px"">+</span>","null","","","","","","","","","",""
"","","","","","audio-button-response","106","933406","0.0-10.0-2.37","https://mcdermottlab.mit.edu/mturk_stimuli/bjmedina/mem_exp_atexts_2025/sequences/isi_16/len120/seq063_len120_s15_isi-1p0_0p0_16p0.json","11.28","true","t7fzgmcyvoa","","2688","https://mcdermottlab.mit.edu/mturk_stimuli/bjmedina/mem_exp_atexts_2025/mem_stim_34.wav","1","main","","","true","mem_stim_34.wav","false","16","","1","hit"
"","","","","","html-keyboard-response","107","933487","0.0-10.0-1.38","https://mcdermottlab.mit.edu/mturk_stimuli/bjmedina/mem_exp_atexts_2025/sequences/isi_16/len120/seq063_len120_s15_isi-1p0_0p0_16p0.json","11.28","true","t7fzgmcyvoa","","null","<span style=""font-size: 40px"">+</span>","null","","","","","","","","","",""
"","","","","","audio-button-response","108","937381","0.0-10.0-2.38","https://mcdermottlab.mit.edu/mturk_stimuli/bjmedina/mem_exp_atexts_2025/sequences/isi_16/len120/seq063_len120_s15_isi-1p0_0p0_16p0.json","11.28","true","t7fzgmcyvoa","","2635","https://mcdermottlab.mit.edu/mturk_stimuli/bjmedina/mem_exp_atexts_2025/mem_stim_76.wav","0","main","","","false","mem_stim_76.wav","false","-1","","1","correct_rejection"
"","","","","","html-keyboard-response","109","937460","0.0-10.0-1.39","https://mcdermottlab.mit.edu/mturk_stimuli/bjmedina/mem_exp_atexts_2025/sequences/isi_16/len120/seq063_len120_s15_isi-1p0_0p0_16p0.json","11.28","true","t7fzgmcyvoa","","null","<span style=""font-size: 40px"">+</span>","null","","","","","","","","","",""
"","","","","","audio-button-response","110","943189","0.0-10.0-2.39","https://mcdermottlab.mit.edu/mturk_stimuli/bjmedina/mem_exp_atexts_2025/sequences/isi_16/len120/seq063_len120_s15_isi-1p0_0p0_16p0.json","11.28","true","t7fzgmcyvoa","","2635","https://mcdermottlab.mit.edu/mturk_stimuli/bjmedina/mem_exp_atexts_2025/mem_stim_37.wav","0","main","","","false","mem_stim_37.wav","false","-1","","1","correct_rejection"
"","","","","","html-keyboard-response","111","943282","0.0-10.0-1.40","https://mcdermottlab.mit.edu/mturk_stimuli/bjmedina/mem_exp_atexts_2025/sequences/isi_16/len120/seq063_len120_s15_isi-1p0_0p0_16p0.json","11.28","true","t7fzgmcyvoa","","null","<span style=""font-size: 40px"">+</span>","null","","","","","","","","","",""
"","","","","","audio-button-response","112","945748","0.0-10.0-2.40","https://mcdermottlab.mit.edu/mturk_stimuli/bjmedina/mem_exp_atexts_2025/sequences/isi_16/len120/seq063_len120_s15_isi-1p0_0p0_16p0.json","11.28","true","t7fzgmcyvoa","","2453","https://mcdermottlab.mit.edu/mturk_stimuli/bjmedina/mem_exp_atexts_2025/mem_stim_47.wav","2","main","","","true","mem_stim_47.wav","false","16","","0","miss"
"","","","","","html-keyboard-response","113","945828","0.0-10.0-1.41","https://mcdermottlab.mit.edu/mturk_stimuli/bjmedina/mem_exp_atexts_2025/sequences/isi_16/len120/seq063_len120_s15_isi-1p0_0p0_16p0.json","11.28","true","t7fzgmcyvoa","","null","<span style=""font-size: 40px"">+</span>","null","","","","","","","","","",""
"","","","","","audio-button-response","114","949182","0.0-10.0-2.41","https://mcdermottlab.mit.edu/mturk_stimuli/bjmedina/mem_exp_atexts_2025/sequences/isi_16/len120/seq063_len120_s15_isi-1p0_0p0_16p0.json","11.28","true","t7fzgmcyvoa","","2581","https://mcdermottlab.mit.edu/mturk_stimuli/bjmedina/mem_exp_atexts_2025/mem_stim_4.wav","2","main","","","false","mem_stim_4.wav","false","-1","","1","correct_rejection"
"","","","","","html-keyboard-response","115","949281","0.0-10.0-1.42","https://mcdermottlab.mit.edu/mturk_stimuli/bjmedina/mem_exp_atexts_2025/sequences/isi_16/len120/seq063_len120_s15_isi-1p0_0p0_16p0.json","11.28","true","t7fzgmcyvoa","","null","<span style=""font-size: 40px"">+</span>","null","","","","","","","","","",""
"","","","","","audio-button-response","116","952112","0.0-10.0-2.42","https://mcdermottlab.mit.edu/mturk_stimuli/bjmedina/mem_exp_atexts_2025/sequences/isi_16/len120/seq063_len120_s15_isi-1p0_0p0_16p0.json","11.28","true","t7fzgmcyvoa","","2197","https://mcdermottlab.mit.edu/mturk_stimuli/bjmedina/mem_exp_atexts_2025/mem_stim_30.wav","0","main","","","false","mem_stim_30.wav","false","-1","","1","correct_rejection"
"","","","","","html-keyboard-response","117","952196","0.0-10.0-1.43","https://mcdermottlab.mit.edu/mturk_stimuli/bjmedina/mem_exp_atexts_2025/sequences/isi_16/len120/seq063_len120_s15_isi-1p0_0p0_16p0.json","11.28","true","t7fzgmcyvoa","","null","<span style=""font-size: 40px"">+</span>","null","","","","","","","","","",""
"","","","","","audio-button-response","118","955406","0.0-10.0-2.43","https://mcdermottlab.mit.edu/mturk_stimuli/bjmedina/mem_exp_atexts_2025/sequences/isi_16/len120/seq063_len120_s15_isi-1p0_0p0_16p0.json","11.28","true","t7fzgmcyvoa","","2507","https://mcdermottlab.mit.edu/mturk_stimuli/bjmedina/mem_exp_atexts_2025/mem_stim_49.wav","0","main","","","false","mem_stim_49.wav","false","-1","","1","correct_rejection"
"","","","","","html-keyboard-response","119","955497","0.0-10.0-1.44","https://mcdermottlab.mit.edu/mturk_stimuli/bjmedina/mem_exp_atexts_2025/sequences/isi_16/len120/seq063_len120_s15_isi-1p0_0p0_16p0.json","11.28","true","t7fzgmcyvoa","","null","<span style=""font-size: 40px"">+</span>","null","","","","","","","","","",""
"","","","","","audio-button-response","120","959998","0.0-10.0-2.44","https://mcdermottlab.mit.edu/mturk_stimuli/bjmedina/mem_exp_atexts_2025/sequences/isi_16/len120/seq063_len120_s15_isi-1p0_0p0_16p0.json","11.28","true","t7fzgmcyvoa","","3392","https://mcdermottlab.mit.edu/mturk_stimuli/bjmedina/mem_exp_atexts_2025/mem_stim_72.wav","3","main","","","false","mem_stim_72.wav","false","-1","","1","correct_rejection"
"","","","","","html-keyboard-response","121","960083","0.0-10.0-1.45","https://mcdermottlab.mit.edu/mturk_stimuli/bjmedina/mem_exp_atexts_2025/sequences/isi_16/len120/seq063_len120_s15_isi-1p0_0p0_16p0.json","11.28","true","t7fzgmcyvoa","","null","<span style=""font-size: 40px"">+</span>","null","","","","","","","","","",""
"","","","","","audio-button-response","122","963837","0.0-10.0-2.45","https://mcdermottlab.mit.edu/mturk_stimuli/bjmedina/mem_exp_atexts_2025/sequences/isi_16/len120/seq063_len120_s15_isi-1p0_0p0_16p0.json","11.28","true","t7fzgmcyvoa","","3019","https://mcdermottlab.mit.edu/mturk_stimuli/bjmedina/mem_exp_atexts_2025/mem_stim_23.wav","3","main","","","false","mem_stim_23.wav","false","-1","","1","correct_rejection"
"","","","","","html-keyboard-response","123","963921","0.0-10.0-1.46","https://mcdermottlab.mit.edu/mturk_stimuli/bjmedina/mem_exp_atexts_2025/sequences/isi_16/len120/seq063_len120_s15_isi-1p0_0p0_16p0.json","11.28","true","t7fzgmcyvoa","","null","<span style=""font-size: 40px"">+</span>","null","","","","","","","","","",""
"","","","","","audio-button-response","124","966322","0.0-10.0-2.46","https://mcdermottlab.mit.edu/mturk_stimuli/bjmedina/mem_exp_atexts_2025/sequences/isi_16/len120/seq063_len120_s15_isi-1p0_0p0_16p0.json","11.28","true","t7fzgmcyvoa","","2389","https://mcdermottlab.mit.edu/mturk_stimuli/bjmedina/mem_exp_atexts_2025/mem_stim_23.wav","3","main","","","true","mem_stim_23.wav","true","0","","0","miss"
"","","","","","html-keyboard-response","125","966400","0.0-10.0-1.47","https://mcdermottlab.mit.edu/mturk_stimuli/bjmedina/mem_exp_atexts_2025/sequences/isi_16/len120/seq063_len120_s15_isi-1p0_0p0_16p0.json","11.28","true","t7fzgmcyvoa","","null","<span style=""font-size: 40px"">+</span>","null","","","","","","","","","",""
"","","","","","audio-button-response","126","971547","0.0-10.0-2.47","https://mcdermottlab.mit.edu/mturk_stimuli/bjmedina/mem_exp_atexts_2025/sequences/isi_16/len120/seq063_len120_s15_isi-1p0_0p0_16p0.json","11.28","true","t7fzgmcyvoa","","4352","https://mcdermottlab.mit.edu/mturk_stimuli/bjmedina/mem_exp_atexts_2025/mem_stim_28.wav","0","main","","","false","mem_stim_28.wav","false","-1","","1","correct_rejection"
"","","","","","html-keyboard-response","127","971634","0.0-10.0-1.48","https://mcdermottlab.mit.edu/mturk_stimuli/bjmedina/mem_exp_atexts_2025/sequences/isi_16/len120/seq063_len120_s15_isi-1p0_0p0_16p0.json","11.28","true","t7fzgmcyvoa","","null","<span style=""font-size: 40px"">+</span>","null","","","","","","","","","",""
"","","","","","audio-button-response","128","974023","0.0-10.0-2.48","https://mcdermottlab.mit.edu/mturk_stimuli/bjmedina/mem_exp_atexts_2025/sequences/isi_16/len120/seq063_len120_s15_isi-1p0_0p0_16p0.json","11.28","true","t7fzgmcyvoa","","2379","https://mcdermottlab.mit.edu/mturk_stimuli/bjmedina/mem_exp_atexts_2025/mem_stim_28.wav","3","main","","","true","mem_stim_28.wav","true","0","","0","miss"
"","","","","","html-keyboard-response","129","974106","0.0-10.0-1.49","https://mcdermottlab.mit.edu/mturk_stimuli/bjmedina/mem_exp_atexts_2025/sequences/isi_16/len120/seq063_len120_s15_isi-1p0_0p0_16p0.json","11.28","true","t7fzgmcyvoa","","null","<span style=""font-size: 40px"">+</span>","null","","","","","","","","","",""
"","","","","","audio-button-response","130","976529","0.0-10.0-2.49","https://mcdermottlab.mit.edu/mturk_stimuli/bjmedina/mem_exp_atexts_2025/sequences/isi_16/len120/seq063_len120_s15_isi-1p0_0p0_16p0.json","11.28","true","t7fzgmcyvoa","","2411","https://mcdermottlab.mit.edu/mturk_stimuli/bjmedina/mem_exp_atexts_2025/mem_stim_41.wav","3","main","","","true","mem_stim_41.wav","false","16","","0","miss"
"","","","","","html-keyboard-response","131","976609","0.0-10.0-1.50","https://mcdermottlab.mit.edu/mturk_stimuli/bjmedina/mem_exp_atexts_2025/sequences/isi_16/len120/seq063_len120_s15_isi-1p0_0p0_16p0.json","11.28","true","t7fzgmcyvoa","","null","<span style=""font-size: 40px"">+</span>","null","","","","","","","","","",""
"","","","","","audio-button-response","132","979911","0.0-10.0-2.50","https://mcdermottlab.mit.edu/mturk_stimuli/bjmedina/mem_exp_atexts_2025/sequences/isi_16/len120/seq063_len120_s15_isi-1p0_0p0_16p0.json","11.28","true","t7fzgmcyvoa","","2379","https://mcdermottlab.mit.edu/mturk_stimuli/bjmedina/mem_exp_atexts_2025/mem_stim_70.wav","2","main","","","false","mem_stim_70.wav","false","-1","","1","correct_rejection"
"","","","","","html-keyboard-response","133","979997","0.0-10.0-1.51","https://mcdermottlab.mit.edu/mturk_stimuli/bjmedina/mem_exp_atexts_2025/sequences/isi_16/len120/seq063_len120_s15_isi-1p0_0p0_16p0.json","11.28","true","t7fzgmcyvoa","","null","<span style=""font-size: 40px"">+</span>","null","","","","","","","","","",""
"","","","","","audio-button-response","134","982415","0.0-10.0-2.51","https://mcdermottlab.mit.edu/mturk_stimuli/bjmedina/mem_exp_atexts_2025/sequences/isi_16/len120/seq063_len120_s15_isi-1p0_0p0_16p0.json","11.28","true","t7fzgmcyvoa","","2411","https://mcdermottlab.mit.edu/mturk_stimuli/bjmedina/mem_exp_atexts_2025/mem_stim_56.wav","3","main","","","true","mem_stim_56.wav","false","16","","0","miss"
"","","","","","html-keyboard-response","135","982513","0.0-10.0-1.52","https://mcdermottlab.mit.edu/mturk_stimuli/bjmedina/mem_exp_atexts_2025/sequences/isi_16/len120/seq063_len120_s15_isi-1p0_0p0_16p0.json","11.28","true","t7fzgmcyvoa","","null","<span style=""font-size: 40px"">+</span>","null","","","","","","","","","",""
"","","","","","audio-button-response","136","985798","0.0-10.0-2.52","https://mcdermottlab.mit.edu/mturk_stimuli/bjmedina/mem_exp_atexts_2025/sequences/isi_16/len120/seq063_len120_s15_isi-1p0_0p0_16p0.json","11.28","true","t7fzgmcyvoa","","2421","https://mcdermottlab.mit.edu/mturk_stimuli/bjmedina/mem_exp_atexts_2025/mem_stim_10.wav","2","main","","","false","mem_stim_10.wav","false","-1","","1","correct_rejection"
"","","","","","html-keyboard-response","137","985883","0.0-10.0-1.53","https://mcdermottlab.mit.edu/mturk_stimuli/bjmedina/mem_exp_atexts_2025/sequences/isi_16/len120/seq063_len120_s15_isi-1p0_0p0_16p0.json","11.28","true","t7fzgmcyvoa","","null","<span style=""font-size: 40px"">+</span>","null","","","","","","","","","",""
"","","","","","audio-button-response","138","989213","0.0-10.0-2.53","https://mcdermottlab.mit.edu/mturk_stimuli/bjmedina/mem_exp_atexts_2025/sequences/isi_16/len120/seq063_len120_s15_isi-1p0_0p0_16p0.json","11.28","true","t7fzgmcyvoa","","2603","https://mcdermottlab.mit.edu/mturk_stimuli/bjmedina/mem_exp_atexts_2025/mem_stim_50.wav","0","main","","","false","mem_stim_50.wav","false","-1","","1","correct_rejection"
"","","","","","html-keyboard-response","139","989310","0.0-10.0-1.54","https://mcdermottlab.mit.edu/mturk_stimuli/bjmedina/mem_exp_atexts_2025/sequences/isi_16/len120/seq063_len120_s15_isi-1p0_0p0_16p0.json","11.28","true","t7fzgmcyvoa","","null","<span style=""font-size: 40px"">+</span>","null","","","","","","","","","",""
"","","","","","audio-button-response","140","992319","0.0-10.0-2.54","https://mcdermottlab.mit.edu/mturk_stimuli/bjmedina/mem_exp_atexts_2025/sequences/isi_16/len120/seq063_len120_s15_isi-1p0_0p0_16p0.json","11.28","true","t7fzgmcyvoa","","2368","https://mcdermottlab.mit.edu/mturk_stimuli/bjmedina/mem_exp_atexts_2025/mem_stim_39.wav","0","main","","","false","mem_stim_39.wav","false","-1","","1","correct_rejection"
"","","","","","html-keyboard-response","141","992408","0.0-10.0-1.55","https://mcdermottlab.mit.edu/mturk_stimuli/bjmedina/mem_exp_atexts_2025/sequences/isi_16/len120/seq063_len120_s15_isi-1p0_0p0_16p0.json","11.28","true","t7fzgmcyvoa","","null","<span style=""font-size: 40px"">+</span>","null","","","","","","","","","",""
"","","","","","audio-button-response","142","996346","0.0-10.0-2.55","https://mcdermottlab.mit.edu/mturk_stimuli/bjmedina/mem_exp_atexts_2025/sequences/isi_16/len120/seq063_len120_s15_isi-1p0_0p0_16p0.json","11.28","true","t7fzgmcyvoa","","3285","https://mcdermottlab.mit.edu/mturk_stimuli/bjmedina/mem_exp_atexts_2025/mem_stim_1.wav","0","main","","","false","mem_stim_1.wav","false","-1","","1","correct_rejection"
"","","","","","html-keyboard-response","143","996428","0.0-10.0-1.56","https://mcdermottlab.mit.edu/mturk_stimuli/bjmedina/mem_exp_atexts_2025/sequences/isi_16/len120/seq063_len120_s15_isi-1p0_0p0_16p0.json","11.28","true","t7fzgmcyvoa","","null","<span style=""font-size: 40px"">+</span>","null","","","","","","","","","",""
"","","","","","audio-button-response","144","1000263","0.0-10.0-2.56","https://mcdermottlab.mit.edu/mturk_stimuli/bjmedina/mem_exp_atexts_2025/sequences/isi_16/len120/seq063_len120_s15_isi-1p0_0p0_16p0.json","11.28","true","t7fzgmcyvoa","","3819","https://mcdermottlab.mit.edu/mturk_stimuli/bjmedina/mem_exp_atexts_2025/mem_stim_37.wav","1","main","","","true","mem_stim_37.wav","false","16","","1","hit"
"","","","","","html-keyboard-response","145","1000344","0.0-10.0-1.57","https://mcdermottlab.mit.edu/mturk_stimuli/bjmedina/mem_exp_atexts_2025/sequences/isi_16/len120/seq063_len120_s15_isi-1p0_0p0_16p0.json","11.28","true","t7fzgmcyvoa","","null","<span style=""font-size: 40px"">+</span>","null","","","","","","","","","",""
"","","","","","audio-button-response","146","1003763","0.0-10.0-2.57","https://mcdermottlab.mit.edu/mturk_stimuli/bjmedina/mem_exp_atexts_2025/sequences/isi_16/len120/seq063_len120_s15_isi-1p0_0p0_16p0.json","11.28","true","t7fzgmcyvoa","","2475","https://mcdermottlab.mit.edu/mturk_stimuli/bjmedina/mem_exp_atexts_2025/mem_stim_33.wav","0","main","","","false","mem_stim_33.wav","false","-1","","1","correct_rejection"
"","","","","","html-keyboard-response","147","1003849","0.0-10.0-1.58","https://mcdermottlab.mit.edu/mturk_stimuli/bjmedina/mem_exp_atexts_2025/sequences/isi_16/len120/seq063_len120_s15_isi-1p0_0p0_16p0.json","11.28","true","t7fzgmcyvoa","","null","<span style=""font-size: 40px"">+</span>","null","","","","","","","","","",""
"","","","","","audio-button-response","148","1007428","0.0-10.0-2.58","https://mcdermottlab.mit.edu/mturk_stimuli/bjmedina/mem_exp_atexts_2025/sequences/isi_16/len120/seq063_len120_s15_isi-1p0_0p0_16p0.json","11.28","true","t7fzgmcyvoa","","2368","https://mcdermottlab.mit.edu/mturk_stimuli/bjmedina/mem_exp_atexts_2025/mem_stim_18.wav","0","main","","","false","mem_stim_18.wav","false","-1","","1","correct_rejection"
"","","","","","html-keyboard-response","149","1007512","0.0-10.0-1.59","https://mcdermottlab.mit.edu/mturk_stimuli/bjmedina/mem_exp_atexts_2025/sequences/isi_16/len120/seq063_len120_s15_isi-1p0_0p0_16p0.json","11.28","true","t7fzgmcyvoa","","null","<span style=""font-size: 40px"">+</span>","null","","","","","","","","","",""
"","","","","","audio-button-response","150","1009982","0.0-10.0-2.59","https://mcdermottlab.mit.edu/mturk_stimuli/bjmedina/mem_exp_atexts_2025/sequences/isi_16/len120/seq063_len120_s15_isi-1p0_0p0_16p0.json","11.28","true","t7fzgmcyvoa","","2453","https://mcdermottlab.mit.edu/mturk_stimuli/bjmedina/mem_exp_atexts_2025/mem_stim_30.wav","3","main","","","true","mem_stim_30.wav","false","16","","0","miss"
"","","","","","html-keyboard-response","151","1010095","0.0-10.0-1.60","https://mcdermottlab.mit.edu/mturk_stimuli/bjmedina/mem_exp_atexts_2025/sequences/isi_16/len120/seq063_len120_s15_isi-1p0_0p0_16p0.json","11.28","true","t7fzgmcyvoa","","null","<span style=""font-size: 40px"">+</span>","null","","","","","","","","","",""
"","","","","","audio-button-response","152","1012454","0.0-10.0-2.60","https://mcdermottlab.mit.edu/mturk_stimuli/bjmedina/mem_exp_atexts_2025/sequences/isi_16/len120/seq063_len120_s15_isi-1p0_0p0_16p0.json","11.28","true","t7fzgmcyvoa","","2347","https://mcdermottlab.mit.edu/mturk_stimuli/bjmedina/mem_exp_atexts_2025/mem_stim_49.wav","3","main","","","true","mem_stim_49.wav","false","16","","0","miss"
"","","","","","html-keyboard-response","153","1012539","0.0-10.0-1.61","https://mcdermottlab.mit.edu/mturk_stimuli/bjmedina/mem_exp_atexts_2025/sequences/isi_16/len120/seq063_len120_s15_isi-1p0_0p0_16p0.json","11.28","true","t7fzgmcyvoa","","null","<span style=""font-size: 40px"">+</span>","null","","","","","","","","","",""
"","","","","","audio-button-response","154","1017173","0.0-10.0-2.61","https://mcdermottlab.mit.edu/mturk_stimuli/bjmedina/mem_exp_atexts_2025/sequences/isi_16/len120/seq063_len120_s15_isi-1p0_0p0_16p0.json","11.28","true","t7fzgmcyvoa","","3797","https://mcdermottlab.mit.edu/mturk_stimuli/bjmedina/mem_exp_atexts_2025/mem_stim_57.wav","2","main","","","false","mem_stim_57.wav","false","-1","","1","correct_rejection"
"","","","","","html-keyboard-response","155","1017258","0.0-10.0-1.62","https://mcdermottlab.mit.edu/mturk_stimuli/bjmedina/mem_exp_atexts_2025/sequences/isi_16/len120/seq063_len120_s15_isi-1p0_0p0_16p0.json","11.28","true","t7fzgmcyvoa","","null","<span style=""font-size: 40px"">+</span>","null","","","","","","","","","",""
"","","","","","audio-button-response","156","1020251","0.0-10.0-2.62","https://mcdermottlab.mit.edu/mturk_stimuli/bjmedina/mem_exp_atexts_2025/sequences/isi_16/len120/seq063_len120_s15_isi-1p0_0p0_16p0.json","11.28","true","t7fzgmcyvoa","","2357","https://mcdermottlab.mit.edu/mturk_stimuli/bjmedina/mem_exp_atexts_2025/mem_stim_79.wav","2","main","","","false","mem_stim_79.wav","false","-1","","1","correct_rejection"
"","","","","","html-keyboard-response","157","1020338","0.0-10.0-1.63","https://mcdermottlab.mit.edu/mturk_stimuli/bjmedina/mem_exp_atexts_2025/sequences/isi_16/len120/seq063_len120_s15_isi-1p0_0p0_16p0.json","11.28","true","t7fzgmcyvoa","","null","<span style=""font-size: 40px"">+</span>","null","","","","","","","","","",""
"","","","","","audio-button-response","158","1023839","0.0-10.0-2.63","https://mcdermottlab.mit.edu/mturk_stimuli/bjmedina/mem_exp_atexts_2025/sequences/isi_16/len120/seq063_len120_s15_isi-1p0_0p0_16p0.json","11.28","true","t7fzgmcyvoa","","2709","https://mcdermottlab.mit.edu/mturk_stimuli/bjmedina/mem_exp_atexts_2025/mem_stim_13.wav","0","main","","","false","mem_stim_13.wav","false","-1","","1","correct_rejection"
"","","","","","html-keyboard-response","159","1023947","0.0-10.0-1.64","https://mcdermottlab.mit.edu/mturk_stimuli/bjmedina/mem_exp_atexts_2025/sequences/isi_16/len120/seq063_len120_s15_isi-1p0_0p0_16p0.json","11.28","true","t7fzgmcyvoa","","null","<span style=""font-size: 40px"">+</span>","null","","","","","","","","","",""
"","","","","","audio-button-response","160","1027214","0.0-10.0-2.64","https://mcdermottlab.mit.edu/mturk_stimuli/bjmedina/mem_exp_atexts_2025/sequences/isi_16/len120/seq063_len120_s15_isi-1p0_0p0_16p0.json","11.28","true","t7fzgmcyvoa","","2368","https://mcdermottlab.mit.edu/mturk_stimuli/bjmedina/mem_exp_atexts_2025/mem_stim_21.wav","0","main","","","false","mem_stim_21.wav","false","-1","","1","correct_rejection"
"","","","","","html-keyboard-response","161","1027303","0.0-10.0-1.65","https://mcdermottlab.mit.edu/mturk_stimuli/bjmedina/mem_exp_atexts_2025/sequences/isi_16/len120/seq063_len120_s15_isi-1p0_0p0_16p0.json","11.28","true","t7fzgmcyvoa","","null","<span style=""font-size: 40px"">+</span>","null","","","","","","","","","",""
"","","","","","audio-button-response","162","1029663","0.0-10.0-2.65","https://mcdermottlab.mit.edu/mturk_stimuli/bjmedina/mem_exp_atexts_2025/sequences/isi_16/len120/seq063_len120_s15_isi-1p0_0p0_16p0.json","11.28","true","t7fzgmcyvoa","","2347","https://mcdermottlab.mit.edu/mturk_stimuli/bjmedina/mem_exp_atexts_2025/mem_stim_21.wav","3","main","","","true","mem_stim_21.wav","true","0","","0","miss"
"","","","","","html-keyboard-response","163","1029750","0.0-10.0-1.66","https://mcdermottlab.mit.edu/mturk_stimuli/bjmedina/mem_exp_atexts_2025/sequences/isi_16/len120/seq063_len120_s15_isi-1p0_0p0_16p0.json","11.28","true","t7fzgmcyvoa","","null","<span style=""font-size: 40px"">+</span>","null","","","","","","","","","",""
"","","","","","audio-button-response","164","1032912","0.0-10.0-2.66","https://mcdermottlab.mit.edu/mturk_stimuli/bjmedina/mem_exp_atexts_2025/sequences/isi_16/len120/seq063_len120_s15_isi-1p0_0p0_16p0.json","11.28","true","t7fzgmcyvoa","","2453","https://mcdermottlab.mit.edu/mturk_stimuli/bjmedina/mem_exp_atexts_2025/mem_stim_32.wav","0","main","","","false","mem_stim_32.wav","false","-1","","1","correct_rejection"
"","","","","","html-keyboard-response","165","1032998","0.0-10.0-1.67","https://mcdermottlab.mit.edu/mturk_stimuli/bjmedina/mem_exp_atexts_2025/sequences/isi_16/len120/seq063_len120_s15_isi-1p0_0p0_16p0.json","11.28","true","t7fzgmcyvoa","","null","<span style=""font-size: 40px"">+</span>","null","","","","","","","","","",""
"","","","","","audio-button-response","166","1036868","0.0-10.0-2.67","https://mcdermottlab.mit.edu/mturk_stimuli/bjmedina/mem_exp_atexts_2025/sequences/isi_16/len120/seq063_len120_s15_isi-1p0_0p0_16p0.json","11.28","true","t7fzgmcyvoa","","2507","https://mcdermottlab.mit.edu/mturk_stimuli/bjmedina/mem_exp_atexts_2025/mem_stim_14.wav","0","main","","","false","mem_stim_14.wav","false","-1","","1","correct_rejection"
"","","","","","html-keyboard-response","167","1036980","0.0-10.0-1.68","https://mcdermottlab.mit.edu/mturk_stimuli/bjmedina/mem_exp_atexts_2025/sequences/isi_16/len120/seq063_len120_s15_isi-1p0_0p0_16p0.json","11.28","true","t7fzgmcyvoa","","null","<span style=""font-size: 40px"">+</span>","null","","","","","","","","","",""
"","","","","","audio-button-response","168","1040358","0.0-10.0-2.68","https://mcdermottlab.mit.edu/mturk_stimuli/bjmedina/mem_exp_atexts_2025/sequences/isi_16/len120/seq063_len120_s15_isi-1p0_0p0_16p0.json","11.28","true","t7fzgmcyvoa","","2485","https://mcdermottlab.mit.edu/mturk_stimuli/bjmedina/mem_exp_atexts_2025/mem_stim_27.wav","0","main","","","false","mem_stim_27.wav","false","-1","","1","correct_rejection"
"","","","","","html-keyboard-response","169","1040448","0.0-10.0-1.69","https://mcdermottlab.mit.edu/mturk_stimuli/bjmedina/mem_exp_atexts_2025/sequences/isi_16/len120/seq063_len120_s15_isi-1p0_0p0_16p0.json","11.28","true","t7fzgmcyvoa","","null","<span style=""font-size: 40px"">+</span>","null","","","","","","","","","",""
"","","","","","audio-button-response","170","1042889","0.0-10.0-2.69","https://mcdermottlab.mit.edu/mturk_stimuli/bjmedina/mem_exp_atexts_2025/sequences/isi_16/len120/seq063_len120_s15_isi-1p0_0p0_16p0.json","11.28","true","t7fzgmcyvoa","","2432","https://mcdermottlab.mit.edu/mturk_stimuli/bjmedina/mem_exp_atexts_2025/mem_stim_27.wav","3","main","","","true","mem_stim_27.wav","true","0","","0","miss"
"","","","","","html-keyboard-response","171","1042981","0.0-10.0-1.70","https://mcdermottlab.mit.edu/mturk_stimuli/bjmedina/mem_exp_atexts_2025/sequences/isi_16/len120/seq063_len120_s15_isi-1p0_0p0_16p0.json","11.28","true","t7fzgmcyvoa","","null","<span style=""font-size: 40px"">+</span>","null","","","","","","","","","",""
"","","","","","audio-button-response","172","1045444","0.0-10.0-2.70","https://mcdermottlab.mit.edu/mturk_stimuli/bjmedina/mem_exp_atexts_2025/sequences/isi_16/len120/seq063_len120_s15_isi-1p0_0p0_16p0.json","11.28","true","t7fzgmcyvoa","","2453","https://mcdermottlab.mit.edu/mturk_stimuli/bjmedina/mem_exp_atexts_2025/mem_stim_50.wav","0","main","","","true","mem_stim_50.wav","false","16","","0","miss"
"","","","","","html-keyboard-response","173","1045555","0.0-10.0-1.71","https://mcdermottlab.mit.edu/mturk_stimuli/bjmedina/mem_exp_atexts_2025/sequences/isi_16/len120/seq063_len120_s15_isi-1p0_0p0_16p0.json","11.28","true","t7fzgmcyvoa","","null","<span style=""font-size: 40px"">+</span>","null","","","","","","","","","",""
"","","","","","audio-button-response","174","1047951","0.0-10.0-2.71","https://mcdermottlab.mit.edu/mturk_stimuli/bjmedina/mem_exp_atexts_2025/sequences/isi_16/len120/seq063_len120_s15_isi-1p0_0p0_16p0.json","11.28","true","t7fzgmcyvoa","","2389","https://mcdermottlab.mit.edu/mturk_stimuli/bjmedina/mem_exp_atexts_2025/mem_stim_39.wav","0","main","","","true","mem_stim_39.wav","false","16","","0","miss"
"","","","","","html-keyboard-response","175","1048038","0.0-10.0-1.72","https://mcdermottlab.mit.edu/mturk_stimuli/bjmedina/mem_exp_atexts_2025/sequences/isi_16/len120/seq063_len120_s15_isi-1p0_0p0_16p0.json","11.28","true","t7fzgmcyvoa","","null","<span style=""font-size: 40px"">+</span>","null","","","","","","","","","",""
"","","","","","audio-button-response","176","1051277","0.0-10.0-2.72","https://mcdermottlab.mit.edu/mturk_stimuli/bjmedina/mem_exp_atexts_2025/sequences/isi_16/len120/seq063_len120_s15_isi-1p0_0p0_16p0.json","11.28","true","t7fzgmcyvoa","","2357","https://mcdermottlab.mit.edu/mturk_stimuli/bjmedina/mem_exp_atexts_2025/mem_stim_38.wav","0","main","","","false","mem_stim_38.wav","false","-1","","1","correct_rejection"
"","","","","","html-keyboard-response","177","1051366","0.0-10.0-1.73","https://mcdermottlab.mit.edu/mturk_stimuli/bjmedina/mem_exp_atexts_2025/sequences/isi_16/len120/seq063_len120_s15_isi-1p0_0p0_16p0.json","11.28","true","t7fzgmcyvoa","","null","<span style=""font-size: 40px"">+</span>","null","","","","","","","","","",""
"","","","","","audio-button-response","178","1054725","0.0-10.0-2.73","https://mcdermottlab.mit.edu/mturk_stimuli/bjmedina/mem_exp_atexts_2025/sequences/isi_16/len120/seq063_len120_s15_isi-1p0_0p0_16p0.json","11.28","true","t7fzgmcyvoa","","2560","https://mcdermottlab.mit.edu/mturk_stimuli/bjmedina/mem_exp_atexts_2025/mem_stim_58.wav","0","main","","","false","mem_stim_58.wav","false","-1","","1","correct_rejection"
"","","","","","html-keyboard-response","179","1054813","0.0-10.0-1.74","https://mcdermottlab.mit.edu/mturk_stimuli/bjmedina/mem_exp_atexts_2025/sequences/isi_16/len120/seq063_len120_s15_isi-1p0_0p0_16p0.json","11.28","true","t7fzgmcyvoa","","null","<span style=""font-size: 40px"">+</span>","null","","","","","","","","","",""
"","","","","","audio-button-response","180","1057511","0.0-10.0-2.74","https://mcdermottlab.mit.edu/mturk_stimuli/bjmedina/mem_exp_atexts_2025/sequences/isi_16/len120/seq063_len120_s15_isi-1p0_0p0_16p0.json","11.28","true","t7fzgmcyvoa","","2688","https://mcdermottlab.mit.edu/mturk_stimuli/bjmedina/mem_exp_atexts_2025/mem_stim_33.wav","3","main","","","true","mem_stim_33.wav","false","16","","0","miss"
"","","","","","html-keyboard-response","181","1057615","0.0-10.0-1.75","https://mcdermottlab.mit.edu/mturk_stimuli/bjmedina/mem_exp_atexts_2025/sequences/isi_16/len120/seq063_len120_s15_isi-1p0_0p0_16p0.json","11.28","true","t7fzgmcyvoa","","null","<span style=""font-size: 40px"">+</span>","null","","","","","","","","","",""
"","","","","","audio-button-response","182","1061675","0.0-10.0-2.75","https://mcdermottlab.mit.edu/mturk_stimuli/bjmedina/mem_exp_atexts_2025/sequences/isi_16/len120/seq063_len120_s15_isi-1p0_0p0_16p0.json","11.28","true","t7fzgmcyvoa","","2517","https://mcdermottlab.mit.edu/mturk_stimuli/bjmedina/mem_exp_atexts_2025/mem_stim_54.wav","0","main","","","false","mem_stim_54.wav","false","-1","","1","correct_rejection"
"","","","","","html-keyboard-response","183","1061769","0.0-10.0-1.76","https://mcdermottlab.mit.edu/mturk_stimuli/bjmedina/mem_exp_atexts_2025/sequences/isi_16/len120/seq063_len120_s15_isi-1p0_0p0_16p0.json","11.28","true","t7fzgmcyvoa","","null","<span style=""font-size: 40px"">+</span>","null","","","","","","","","","",""
"","","","","","audio-button-response","184","1068566","0.0-10.0-2.76","https://mcdermottlab.mit.edu/mturk_stimuli/bjmedina/mem_exp_atexts_2025/sequences/isi_16/len120/seq063_len120_s15_isi-1p0_0p0_16p0.json","11.28","true","t7fzgmcyvoa","","3179","https://mcdermottlab.mit.edu/mturk_stimuli/bjmedina/mem_exp_atexts_2025/mem_stim_3.wav","1","main","","","false","mem_stim_3.wav","false","-1","","0","false_alarm"
"","","","","","html-keyboard-response","185","1068653","0.0-10.0-1.77","https://mcdermottlab.mit.edu/mturk_stimuli/bjmedina/mem_exp_atexts_2025/sequences/isi_16/len120/seq063_len120_s15_isi-1p0_0p0_16p0.json","11.28","true","t7fzgmcyvoa","","null","<span style=""font-size: 40px"">+</span>","null","","","","","","","","","",""
"","","","","","audio-button-response","186","1073653","0.0-10.0-2.77","https://mcdermottlab.mit.edu/mturk_stimuli/bjmedina/mem_exp_atexts_2025/sequences/isi_16/len120/seq063_len120_s15_isi-1p0_0p0_16p0.json","11.28","true","t7fzgmcyvoa","","2496","https://mcdermottlab.mit.edu/mturk_stimuli/bjmedina/mem_exp_atexts_2025/mem_stim_36.wav","0","main","","","false","mem_stim_36.wav","false","-1","","1","correct_rejection"
"","","","","","html-keyboard-response","187","1073744","0.0-10.0-1.78","https://mcdermottlab.mit.edu/mturk_stimuli/bjmedina/mem_exp_atexts_2025/sequences/isi_16/len120/seq063_len120_s15_isi-1p0_0p0_16p0.json","11.28","true","t7fzgmcyvoa","","null","<span style=""font-size: 40px"">+</span>","null","","","","","","","","","",""
"","","","","","audio-button-response","188","1077155","0.0-10.0-2.78","https://mcdermottlab.mit.edu/mturk_stimuli/bjmedina/mem_exp_atexts_2025/sequences/isi_16/len120/seq063_len120_s15_isi-1p0_0p0_16p0.json","11.28","true","t7fzgmcyvoa","","3403","https://mcdermottlab.mit.edu/mturk_stimuli/bjmedina/mem_exp_atexts_2025/mem_stim_57.wav","1","main","","","true","mem_stim_57.wav","false","16","","1","hit"
"","","","","","html-keyboard-response","189","1077243","0.0-10.0-1.79","https://mcdermottlab.mit.edu/mturk_stimuli/bjmedina/mem_exp_atexts_2025/sequences/isi_16/len120/seq063_len120_s15_isi-1p0_0p0_16p0.json","11.28","true","t7fzgmcyvoa","","null","<span style=""font-size: 40px"">+</span>","null","","","","","","","","","",""
"","","","","","audio-button-response","190","1080318","0.0-10.0-2.79","https://mcdermottlab.mit.edu/mturk_stimuli/bjmedina/mem_exp_atexts_2025/sequences/isi_16/len120/seq063_len120_s15_isi-1p0_0p0_16p0.json","11.28","true","t7fzgmcyvoa","","2443","https://mcdermottlab.mit.edu/mturk_stimuli/bjmedina/mem_exp_atexts_2025/mem_stim_60.wav","3","main","","","false","mem_stim_60.wav","false","-1","","1","correct_rejection"
"","","","","","html-keyboard-response","191","1080403","0.0-10.0-1.80","https://mcdermottlab.mit.edu/mturk_stimuli/bjmedina/mem_exp_atexts_2025/sequences/isi_16/len120/seq063_len120_s15_isi-1p0_0p0_16p0.json","11.28","true","t7fzgmcyvoa","","null","<span style=""font-size: 40px"">+</span>","null","","","","","","","","","",""
"","","","","","audio-button-response","192","1084559","0.0-10.0-2.80","https://mcdermottlab.mit.edu/mturk_stimuli/bjmedina/mem_exp_atexts_2025/sequences/isi_16/len120/seq063_len120_s15_isi-1p0_0p0_16p0.json","11.28","true","t7fzgmcyvoa","","3275","https://mcdermottlab.mit.edu/mturk_stimuli/bjmedina/mem_exp_atexts_2025/mem_stim_65.wav","3","main","","","false","mem_stim_65.wav","false","-1","","1","correct_rejection"
"","","","","","html-keyboard-response","193","1084659","0.0-10.0-1.81","https://mcdermottlab.mit.edu/mturk_stimuli/bjmedina/mem_exp_atexts_2025/sequences/isi_16/len120/seq063_len120_s15_isi-1p0_0p0_16p0.json","11.28","true","t7fzgmcyvoa","","null","<span style=""font-size: 40px"">+</span>","null","","","","","","","","","",""
"","","","","","audio-button-response","194","1089199","0.0-10.0-2.81","https://mcdermottlab.mit.edu/mturk_stimuli/bjmedina/mem_exp_atexts_2025/sequences/isi_16/len120/seq063_len120_s15_isi-1p0_0p0_16p0.json","11.28","true","t7fzgmcyvoa","","3349","https://mcdermottlab.mit.edu/mturk_stimuli/bjmedina/mem_exp_atexts_2025/mem_stim_31.wav","1","main","","","false","mem_stim_31.wav","false","-1","","0","false_alarm"
"","","","","","html-keyboard-response","195","1089288","0.0-10.0-1.82","https://mcdermottlab.mit.edu/mturk_stimuli/bjmedina/mem_exp_atexts_2025/sequences/isi_16/len120/seq063_len120_s15_isi-1p0_0p0_16p0.json","11.28","true","t7fzgmcyvoa","","null","<span style=""font-size: 40px"">+</span>","null","","","","","","","","","",""
"","","","","","audio-button-response","196","1093332","0.0-10.0-2.82","https://mcdermottlab.mit.edu/mturk_stimuli/bjmedina/mem_exp_atexts_2025/sequences/isi_16/len120/seq063_len120_s15_isi-1p0_0p0_16p0.json","11.28","true","t7fzgmcyvoa","","2944","https://mcdermottlab.mit.edu/mturk_stimuli/bjmedina/mem_exp_atexts_2025/mem_stim_63.wav","2","main","","","false","mem_stim_63.wav","false","-1","","1","correct_rejection"
"","","","","","html-keyboard-response","197","1093420","0.0-10.0-1.83","https://mcdermottlab.mit.edu/mturk_stimuli/bjmedina/mem_exp_atexts_2025/sequences/isi_16/len120/seq063_len120_s15_isi-1p0_0p0_16p0.json","11.28","true","t7fzgmcyvoa","","null","<span style=""font-size: 40px"">+</span>","null","","","","","","","","","",""
"","","","","","audio-button-response","198","1095885","0.0-10.0-2.83","https://mcdermottlab.mit.edu/mturk_stimuli/bjmedina/mem_exp_atexts_2025/sequences/isi_16/len120/seq063_len120_s15_isi-1p0_0p0_16p0.json","11.28","true","t7fzgmcyvoa","","2464","https://mcdermottlab.mit.edu/mturk_stimuli/bjmedina/mem_exp_atexts_2025/mem_stim_32.wav","2","main","","","true","mem_stim_32.wav","false","16","","0","miss"
"","","","","","html-keyboard-response","199","1095975","0.0-10.0-1.84","https://mcdermottlab.mit.edu/mturk_stimuli/bjmedina/mem_exp_atexts_2025/sequences/isi_16/len120/seq063_len120_s15_isi-1p0_0p0_16p0.json","11.28","true","t7fzgmcyvoa","","null","<span style=""font-size: 40px"">+</span>","null","","","","","","","","","",""
"","","","","","audio-button-response","200","1099429","0.0-10.0-2.84","https://mcdermottlab.mit.edu/mturk_stimuli/bjmedina/mem_exp_atexts_2025/sequences/isi_16/len120/seq063_len120_s15_isi-1p0_0p0_16p0.json","11.28","true","t7fzgmcyvoa","","2635","https://mcdermottlab.mit.edu/mturk_stimuli/bjmedina/mem_exp_atexts_2025/mem_stim_59.wav","3","main","","","false","mem_stim_59.wav","false","-1","","1","correct_rejection"
"","","","","","html-keyboard-response","201","1099518","0.0-10.0-1.85","https://mcdermottlab.mit.edu/mturk_stimuli/bjmedina/mem_exp_atexts_2025/sequences/isi_16/len120/seq063_len120_s15_isi-1p0_0p0_16p0.json","11.28","true","t7fzgmcyvoa","","null","<span style=""font-size: 40px"">+</span>","null","","","","","","","","","",""
"","","","","","audio-button-response","202","1103438","0.0-10.0-2.85","https://mcdermottlab.mit.edu/mturk_stimuli/bjmedina/mem_exp_atexts_2025/sequences/isi_16/len120/seq063_len120_s15_isi-1p0_0p0_16p0.json","11.28","true","t7fzgmcyvoa","","3264","https://mcdermottlab.mit.edu/mturk_stimuli/bjmedina/mem_exp_atexts_2025/mem_stim_55.wav","0","main","","","false","mem_stim_55.wav","false","-1","","1","correct_rejection"
"","","","","","html-keyboard-response","203","1103543","0.0-10.0-1.86","https://mcdermottlab.mit.edu/mturk_stimuli/bjmedina/mem_exp_atexts_2025/sequences/isi_16/len120/seq063_len120_s15_isi-1p0_0p0_16p0.json","11.28","true","t7fzgmcyvoa","","null","<span style=""font-size: 40px"">+</span>","null","","","","","","","","","",""
"","","","","","audio-button-response","204","1107604","0.0-10.0-2.86","https://mcdermottlab.mit.edu/mturk_stimuli/bjmedina/mem_exp_atexts_2025/sequences/isi_16/len120/seq063_len120_s15_isi-1p0_0p0_16p0.json","11.28","true","t7fzgmcyvoa","","2357","https://mcdermottlab.mit.edu/mturk_stimuli/bjmedina/mem_exp_atexts_2025/mem_stim_74.wav","0","main","","","false","mem_stim_74.wav","false","-1","","1","correct_rejection"
"","","","","","html-keyboard-response","205","1107693","0.0-10.0-1.87","https://mcdermottlab.mit.edu/mturk_stimuli/bjmedina/mem_exp_atexts_2025/sequences/isi_16/len120/seq063_len120_s15_isi-1p0_0p0_16p0.json","11.28","true","t7fzgmcyvoa","","null","<span style=""font-size: 40px"">+</span>","null","","","","","","","","","",""
"","","","","","audio-button-response","206","1111381","0.0-10.0-2.87","https://mcdermottlab.mit.edu/mturk_stimuli/bjmedina/mem_exp_atexts_2025/sequences/isi_16/len120/seq063_len120_s15_isi-1p0_0p0_16p0.json","11.28","true","t7fzgmcyvoa","","2485","https://mcdermottlab.mit.edu/mturk_stimuli/bjmedina/mem_exp_atexts_2025/mem_stim_0.wav","1","main","","","false","mem_stim_0.wav","false","-1","","0","false_alarm"
"","","","","","html-keyboard-response","207","1111472","0.0-10.0-1.88","https://mcdermottlab.mit.edu/mturk_stimuli/bjmedina/mem_exp_atexts_2025/sequences/isi_16/len120/seq063_len120_s15_isi-1p0_0p0_16p0.json","11.28","true","t7fzgmcyvoa","","null","<span style=""font-size: 40px"">+</span>","null","","","","","","","","","",""
"","","","","","audio-button-response","208","1115045","0.0-10.0-2.88","https://mcdermottlab.mit.edu/mturk_stimuli/bjmedina/mem_exp_atexts_2025/sequences/isi_16/len120/seq063_len120_s15_isi-1p0_0p0_16p0.json","11.28","true","t7fzgmcyvoa","","2368","https://mcdermottlab.mit.edu/mturk_stimuli/bjmedina/mem_exp_atexts_2025/mem_stim_53.wav","0","main","","","false","mem_stim_53.wav","false","-1","","1","correct_rejection"
"","","","","","html-keyboard-response","209","1115138","0.0-10.0-1.89","https://mcdermottlab.mit.edu/mturk_stimuli/bjmedina/mem_exp_atexts_2025/sequences/isi_16/len120/seq063_len120_s15_isi-1p0_0p0_16p0.json","11.28","true","t7fzgmcyvoa","","null","<span style=""font-size: 40px"">+</span>","null","","","","","","","","","",""
"","","","","","audio-button-response","210","1117558","0.0-10.0-2.89","https://mcdermottlab.mit.edu/mturk_stimuli/bjmedina/mem_exp_atexts_2025/sequences/isi_16/len120/seq063_len120_s15_isi-1p0_0p0_16p0.json","11.28","true","t7fzgmcyvoa","","2411","https://mcdermottlab.mit.edu/mturk_stimuli/bjmedina/mem_exp_atexts_2025/mem_stim_38.wav","0","main","","","true","mem_stim_38.wav","false","16","","0","miss"
"","","","","","html-keyboard-response","211","1117674","0.0-10.0-1.90","https://mcdermottlab.mit.edu/mturk_stimuli/bjmedina/mem_exp_atexts_2025/sequences/isi_16/len120/seq063_len120_s15_isi-1p0_0p0_16p0.json","11.28","true","t7fzgmcyvoa","","null","<span style=""font-size: 40px"">+</span>","null","","","","","","","","","",""
"","","","","","audio-button-response","212","1120143","0.0-10.0-2.90","https://mcdermottlab.mit.edu/mturk_stimuli/bjmedina/mem_exp_atexts_2025/sequences/isi_16/len120/seq063_len120_s15_isi-1p0_0p0_16p0.json","11.28","true","t7fzgmcyvoa","","2464","https://mcdermottlab.mit.edu/mturk_stimuli/bjmedina/mem_exp_atexts_2025/mem_stim_58.wav","1","main","","","true","mem_stim_58.wav","false","16","","1","hit"
"","","","","","html-keyboard-response","213","1120244","0.0-10.0-1.91","https://mcdermottlab.mit.edu/mturk_stimuli/bjmedina/mem_exp_atexts_2025/sequences/isi_16/len120/seq063_len120_s15_isi-1p0_0p0_16p0.json","11.28","true","t7fzgmcyvoa","","null","<span style=""font-size: 40px"">+</span>","null","","","","","","","","","",""
"","","","","","audio-button-response","214","1127855","0.0-10.0-2.91","https://mcdermottlab.mit.edu/mturk_stimuli/bjmedina/mem_exp_atexts_2025/sequences/isi_16/len120/seq063_len120_s15_isi-1p0_0p0_16p0.json","11.28","true","t7fzgmcyvoa","","3285","https://mcdermottlab.mit.edu/mturk_stimuli/bjmedina/mem_exp_atexts_2025/mem_stim_44.wav","2","main","","","false","mem_stim_44.wav","false","-1","","1","correct_rejection"
"","","","","","html-keyboard-response","215","1127975","0.0-10.0-1.92","https://mcdermottlab.mit.edu/mturk_stimuli/bjmedina/mem_exp_atexts_2025/sequences/isi_16/len120/seq063_len120_s15_isi-1p0_0p0_16p0.json","11.28","true","t7fzgmcyvoa","","null","<span style=""font-size: 40px"">+</span>","null","","","","","","","","","",""
"","","","","","audio-button-response","216","1130494","0.0-10.0-2.92","https://mcdermottlab.mit.edu/mturk_stimuli/bjmedina/mem_exp_atexts_2025/sequences/isi_16/len120/seq063_len120_s15_isi-1p0_0p0_16p0.json","11.28","true","t7fzgmcyvoa","","2507","https://mcdermottlab.mit.edu/mturk_stimuli/bjmedina/mem_exp_atexts_2025/mem_stim_54.wav","0","main","","","true","mem_stim_54.wav","false","16","","0","miss"
"","","","","","html-keyboard-response","217","1130590","0.0-10.0-1.93","https://mcdermottlab.mit.edu/mturk_stimuli/bjmedina/mem_exp_atexts_2025/sequences/isi_16/len120/seq063_len120_s15_isi-1p0_0p0_16p0.json","11.28","true","t7fzgmcyvoa","","null","<span style=""font-size: 40px"">+</span>","null","","","","","","","","","",""
"","","","","","audio-button-response","218","1142326","0.0-10.0-2.93","https://mcdermottlab.mit.edu/mturk_stimuli/bjmedina/mem_exp_atexts_2025/sequences/isi_16/len120/seq063_len120_s15_isi-1p0_0p0_16p0.json","11.28","true","t7fzgmcyvoa","","3083","https://mcdermottlab.mit.edu/mturk_stimuli/bjmedina/mem_exp_atexts_2025/mem_stim_46.wav","3","main","","","false","mem_stim_46.wav","false","-1","","1","correct_rejection"
"","","","","","html-keyboard-response","219","1142420","0.0-10.0-1.94","https://mcdermottlab.mit.edu/mturk_stimuli/bjmedina/mem_exp_atexts_2025/sequences/isi_16/len120/seq063_len120_s15_isi-1p0_0p0_16p0.json","11.28","true","t7fzgmcyvoa","","null","<span style=""font-size: 40px"">+</span>","null","","","","","","","","","",""
"","","","","","audio-button-response","220","1144759","0.0-10.0-2.94","https://mcdermottlab.mit.edu/mturk_stimuli/bjmedina/mem_exp_atexts_2025/sequences/isi_16/len120/seq063_len120_s15_isi-1p0_0p0_16p0.json","11.28","true","t7fzgmcyvoa","","2336","https://mcdermottlab.mit.edu/mturk_stimuli/bjmedina/mem_exp_atexts_2025/mem_stim_36.wav","3","main","","","true","mem_stim_36.wav","false","16","","0","miss"
"","","","","","html-keyboard-response","221","1144877","0.0-10.0-1.95","https://mcdermottlab.mit.edu/mturk_stimuli/bjmedina/mem_exp_atexts_2025/sequences/isi_16/len120/seq063_len120_s15_isi-1p0_0p0_16p0.json","11.28","true","t7fzgmcyvoa","","null","<span style=""font-size: 40px"">+</span>","null","","","","","","","","","",""
"","","","","","audio-button-response","222","1148103","0.0-10.0-2.95","https://mcdermottlab.mit.edu/mturk_stimuli/bjmedina/mem_exp_atexts_2025/sequences/isi_16/len120/seq063_len120_s15_isi-1p0_0p0_16p0.json","11.28","true","t7fzgmcyvoa","","2368","https://mcdermottlab.mit.edu/mturk_stimuli/bjmedina/mem_exp_atexts_2025/mem_stim_67.wav","3","main","","","false","mem_stim_67.wav","false","-1","","1","correct_rejection"
"","","","","","html-keyboard-response","223","1148196","0.0-10.0-1.96","https://mcdermottlab.mit.edu/mturk_stimuli/bjmedina/mem_exp_atexts_2025/sequences/isi_16/len120/seq063_len120_s15_isi-1p0_0p0_16p0.json","11.28","true","t7fzgmcyvoa","","null","<span style=""font-size: 40px"">+</span>","null","","","","","","","","","",""
"","","","","","audio-button-response","224","1152173","0.0-10.0-2.96","https://mcdermottlab.mit.edu/mturk_stimuli/bjmedina/mem_exp_atexts_2025/sequences/isi_16/len120/seq063_len120_s15_isi-1p0_0p0_16p0.json","11.28","true","t7fzgmcyvoa","","3157","https://mcdermottlab.mit.edu/mturk_stimuli/bjmedina/mem_exp_atexts_2025/mem_stim_40.wav","0","main","","","false","mem_stim_40.wav","false","-1","","1","correct_rejection"
"","","","","","html-keyboard-response","225","1152267","0.0-10.0-1.97","https://mcdermottlab.mit.edu/mturk_stimuli/bjmedina/mem_exp_atexts_2025/sequences/isi_16/len120/seq063_len120_s15_isi-1p0_0p0_16p0.json","11.28","true","t7fzgmcyvoa","","null","<span style=""font-size: 40px"">+</span>","null","","","","","","","","","",""
"","","","","","audio-button-response","226","1155797","0.0-10.0-2.97","https://mcdermottlab.mit.edu/mturk_stimuli/bjmedina/mem_exp_atexts_2025/sequences/isi_16/len120/seq063_len120_s15_isi-1p0_0p0_16p0.json","11.28","true","t7fzgmcyvoa","","2581","https://mcdermottlab.mit.edu/mturk_stimuli/bjmedina/mem_exp_atexts_2025/mem_stim_51.wav","0","main","","","false","mem_stim_51.wav","false","-1","","1","correct_rejection"
"","","","","","html-keyboard-response","227","1155915","0.0-10.0-1.98","https://mcdermottlab.mit.edu/mturk_stimuli/bjmedina/mem_exp_atexts_2025/sequences/isi_16/len120/seq063_len120_s15_isi-1p0_0p0_16p0.json","11.28","true","t7fzgmcyvoa","","null","<span style=""font-size: 40px"">+</span>","null","","","","","","","","","",""
"","","","","","audio-button-response","228","1158512","0.0-10.0-2.98","https://mcdermottlab.mit.edu/mturk_stimuli/bjmedina/mem_exp_atexts_2025/sequences/isi_16/len120/seq063_len120_s15_isi-1p0_0p0_16p0.json","11.28","true","t7fzgmcyvoa","","2592","https://mcdermottlab.mit.edu/mturk_stimuli/bjmedina/mem_exp_atexts_2025/mem_stim_31.wav","1","main","","","true","mem_stim_31.wav","false","16","","1","hit"
"","","","","","html-keyboard-response","229","1158609","0.0-10.0-1.99","https://mcdermottlab.mit.edu/mturk_stimuli/bjmedina/mem_exp_atexts_2025/sequences/isi_16/len120/seq063_len120_s15_isi-1p0_0p0_16p0.json","11.28","true","t7fzgmcyvoa","","null","<span style=""font-size: 40px"">+</span>","null","","","","","","","","","",""
"","","","","","audio-button-response","230","1162340","0.0-10.0-2.99","https://mcdermottlab.mit.edu/mturk_stimuli/bjmedina/mem_exp_atexts_2025/sequences/isi_16/len120/seq063_len120_s15_isi-1p0_0p0_16p0.json","11.28","true","t7fzgmcyvoa","","2453","https://mcdermottlab.mit.edu/mturk_stimuli/bjmedina/mem_exp_atexts_2025/mem_stim_16.wav","0","main","","","false","mem_stim_16.wav","false","-1","","1","correct_rejection"
"","","","","","html-keyboard-response","231","1162435","0.0-10.0-1.100","https://mcdermottlab.mit.edu/mturk_stimuli/bjmedina/mem_exp_atexts_2025/sequences/isi_16/len120/seq063_len120_s15_isi-1p0_0p0_16p0.json","11.28","true","t7fzgmcyvoa","","null","<span style=""font-size: 40px"">+</span>","null","","","","","","","","","",""
"","","","","","audio-button-response","232","1167415","0.0-10.0-2.100","https://mcdermottlab.mit.edu/mturk_stimuli/bjmedina/mem_exp_atexts_2025/sequences/isi_16/len120/seq063_len120_s15_isi-1p0_0p0_16p0.json","11.28","true","t7fzgmcyvoa","","3915","https://mcdermottlab.mit.edu/mturk_stimuli/bjmedina/mem_exp_atexts_2025/mem_stim_35.wav","0","main","","","false","mem_stim_35.wav","false","-1","","1","correct_rejection"
"","","","","","html-keyboard-response","233","1167534","0.0-10.0-1.101","https://mcdermottlab.mit.edu/mturk_stimuli/bjmedina/mem_exp_atexts_2025/sequences/isi_16/len120/seq063_len120_s15_isi-1p0_0p0_16p0.json","11.28","true","t7fzgmcyvoa","","null","<span style=""font-size: 40px"">+</span>","null","","","","","","","","","",""
"","","","","","audio-button-response","234","1170232","0.0-10.0-2.101","https://mcdermottlab.mit.edu/mturk_stimuli/bjmedina/mem_exp_atexts_2025/sequences/isi_16/len120/seq063_len120_s15_isi-1p0_0p0_16p0.json","11.28","true","t7fzgmcyvoa","","2688","https://mcdermottlab.mit.edu/mturk_stimuli/bjmedina/mem_exp_atexts_2025/mem_stim_59.wav","3","main","","","true","mem_stim_59.wav","false","16","","0","miss"
"","","","","","html-keyboard-response","235","1170325","0.0-10.0-1.102","https://mcdermottlab.mit.edu/mturk_stimuli/bjmedina/mem_exp_atexts_2025/sequences/isi_16/len120/seq063_len120_s15_isi-1p0_0p0_16p0.json","11.28","true","t7fzgmcyvoa","","null","<span style=""font-size: 40px"">+</span>","null","","","","","","","","","",""
"","","","","","audio-button-response","236","1174188","0.0-10.0-2.102","https://mcdermottlab.mit.edu/mturk_stimuli/bjmedina/mem_exp_atexts_2025/sequences/isi_16/len120/seq063_len120_s15_isi-1p0_0p0_16p0.json","11.28","true","t7fzgmcyvoa","","3861","https://mcdermottlab.mit.edu/mturk_stimuli/bjmedina/mem_exp_atexts_2025/mem_stim_55.wav","2","main","","","true","mem_stim_55.wav","false","16","","0","miss"
"","","","","","html-keyboard-response","237","1174312","0.0-10.0-1.103","https://mcdermottlab.mit.edu/mturk_stimuli/bjmedina/mem_exp_atexts_2025/sequences/isi_16/len120/seq063_len120_s15_isi-1p0_0p0_16p0.json","11.28","true","t7fzgmcyvoa","","null","<span style=""font-size: 40px"">+</span>","null","","","","","","","","","",""
"","","","","","audio-button-response","238","1179419","0.0-10.0-2.103","https://mcdermottlab.mit.edu/mturk_stimuli/bjmedina/mem_exp_atexts_2025/sequences/isi_16/len120/seq063_len120_s15_isi-1p0_0p0_16p0.json","11.28","true","t7fzgmcyvoa","","2965","https://mcdermottlab.mit.edu/mturk_stimuli/bjmedina/mem_exp_atexts_2025/mem_stim_64.wav","0","main","","","false","mem_stim_64.wav","false","-1","","1","correct_rejection"
"","","","","","html-keyboard-response","239","1179517","0.0-10.0-1.104","https://mcdermottlab.mit.edu/mturk_stimuli/bjmedina/mem_exp_atexts_2025/sequences/isi_16/len120/seq063_len120_s15_isi-1p0_0p0_16p0.json","11.28","true","t7fzgmcyvoa","","null","<span style=""font-size: 40px"">+</span>","null","","","","","","","","","",""
"","","","","","audio-button-response","240","1183093","0.0-10.0-2.104","https://mcdermottlab.mit.edu/mturk_stimuli/bjmedina/mem_exp_atexts_2025/sequences/isi_16/len120/seq063_len120_s15_isi-1p0_0p0_16p0.json","11.28","true","t7fzgmcyvoa","","2368","https://mcdermottlab.mit.edu/mturk_stimuli/bjmedina/mem_exp_atexts_2025/mem_stim_17.wav","0","main","","","false","mem_stim_17.wav","false","-1","","1","correct_rejection"
"","","","","","html-keyboard-response","241","1183205","0.0-10.0-1.105","https://mcdermottlab.mit.edu/mturk_stimuli/bjmedina/mem_exp_atexts_2025/sequences/isi_16/len120/seq063_len120_s15_isi-1p0_0p0_16p0.json","11.28","true","t7fzgmcyvoa","","null","<span style=""font-size: 40px"">+</span>","null","","","","","","","","","",""
"","","","","","audio-button-response","242","1186788","0.0-10.0-2.105","https://mcdermottlab.mit.edu/mturk_stimuli/bjmedina/mem_exp_atexts_2025/sequences/isi_16/len120/seq063_len120_s15_isi-1p0_0p0_16p0.json","11.28","true","t7fzgmcyvoa","","3573","https://mcdermottlab.mit.edu/mturk_stimuli/bjmedina/mem_exp_atexts_2025/mem_stim_53.wav","3","main","","","true","mem_stim_53.wav","false","16","","0","miss"
"","","","","","html-keyboard-response","243","1186878","0.0-10.0-1.106","https://mcdermottlab.mit.edu/mturk_stimuli/bjmedina/mem_exp_atexts_2025/sequences/isi_16/len120/seq063_len120_s15_isi-1p0_0p0_16p0.json","11.28","true","t7fzgmcyvoa","","null","<span style=""font-size: 40px"">+</span>","null","","","","","","","","","",""
"","","","","","audio-button-response","244","1190253","0.0-10.0-2.106","https://mcdermottlab.mit.edu/mturk_stimuli/bjmedina/mem_exp_atexts_2025/sequences/isi_16/len120/seq063_len120_s15_isi-1p0_0p0_16p0.json","11.28","true","t7fzgmcyvoa","","2432","https://mcdermottlab.mit.edu/mturk_stimuli/bjmedina/mem_exp_atexts_2025/mem_stim_71.wav","0","main","","","false","mem_stim_71.wav","false","-1","","1","correct_rejection"
"","","","","","html-keyboard-response","245","1190372","0.0-10.0-1.107","https://mcdermottlab.mit.edu/mturk_stimuli/bjmedina/mem_exp_atexts_2025/sequences/isi_16/len120/seq063_len120_s15_isi-1p0_0p0_16p0.json","11.28","true","t7fzgmcyvoa","","null","<span style=""font-size: 40px"">+</span>","null","","","","","","","","","",""
"","","","","","audio-button-response","246","1194021","0.0-10.0-2.107","https://mcdermottlab.mit.edu/mturk_stimuli/bjmedina/mem_exp_atexts_2025/sequences/isi_16/len120/seq063_len120_s15_isi-1p0_0p0_16p0.json","11.28","true","t7fzgmcyvoa","","2496","https://mcdermottlab.mit.edu/mturk_stimuli/bjmedina/mem_exp_atexts_2025/mem_stim_62.wav","0","main","","","false","mem_stim_62.wav","false","-1","","1","correct_rejection"
"","","","","","html-keyboard-response","247","1194115","0.0-10.0-1.108","https://mcdermottlab.mit.edu/mturk_stimuli/bjmedina/mem_exp_atexts_2025/sequences/isi_16/len120/seq063_len120_s15_isi-1p0_0p0_16p0.json","11.28","true","t7fzgmcyvoa","","null","<span style=""font-size: 40px"">+</span>","null","","","","","","","","","",""
"","","","","","audio-button-response","248","1196432","0.0-10.0-2.108","https://mcdermottlab.mit.edu/mturk_stimuli/bjmedina/mem_exp_atexts_2025/sequences/isi_16/len120/seq063_len120_s15_isi-1p0_0p0_16p0.json","11.28","true","t7fzgmcyvoa","","2315","https://mcdermottlab.mit.edu/mturk_stimuli/bjmedina/mem_exp_atexts_2025/mem_stim_44.wav","3","main","","","true","mem_stim_44.wav","false","16","","0","miss"
"","","","","","html-keyboard-response","249","1196553","0.0-10.0-1.109","https://mcdermottlab.mit.edu/mturk_stimuli/bjmedina/mem_exp_atexts_2025/sequences/isi_16/len120/seq063_len120_s15_isi-1p0_0p0_16p0.json","11.28","true","t7fzgmcyvoa","","null","<span style=""font-size: 40px"">+</span>","null","","","","","","","","","",""
"","","","","","audio-button-response","250","1199768","0.0-10.0-2.109","https://mcdermottlab.mit.edu/mturk_stimuli/bjmedina/mem_exp_atexts_2025/sequences/isi_16/len120/seq063_len120_s15_isi-1p0_0p0_16p0.json","11.28","true","t7fzgmcyvoa","","2389","https://mcdermottlab.mit.edu/mturk_stimuli/bjmedina/mem_exp_atexts_2025/mem_stim_8.wav","1","main","","","false","mem_stim_8.wav","false","-1","","0","false_alarm"
"","","","","","html-keyboard-response","251","1199859","0.0-10.0-1.110","https://mcdermottlab.mit.edu/mturk_stimuli/bjmedina/mem_exp_atexts_2025/sequences/isi_16/len120/seq063_len120_s15_isi-1p0_0p0_16p0.json","11.28","true","t7fzgmcyvoa","","null","<span style=""font-size: 40px"">+</span>","null","","","","","","","","","",""
"","","","","","audio-button-response","252","1202159","0.0-10.0-2.110","https://mcdermottlab.mit.edu/mturk_stimuli/bjmedina/mem_exp_atexts_2025/sequences/isi_16/len120/seq063_len120_s15_isi-1p0_0p0_16p0.json","11.28","true","t7fzgmcyvoa","","2293","https://mcdermottlab.mit.edu/mturk_stimuli/bjmedina/mem_exp_atexts_2025/mem_stim_46.wav","2","main","","","true","mem_stim_46.wav","false","16","","0","miss"
"","","","","","html-keyboard-response","253","1202251","0.0-10.0-1.111","https://mcdermottlab.mit.edu/mturk_stimuli/bjmedina/mem_exp_atexts_2025/sequences/isi_16/len120/seq063_len120_s15_isi-1p0_0p0_16p0.json","11.28","true","t7fzgmcyvoa","","null","<span style=""font-size: 40px"">+</span>","null","","","","","","","","","",""
"","","","","","audio-button-response","254","1207014","0.0-10.0-2.111","https://mcdermottlab.mit.edu/mturk_stimuli/bjmedina/mem_exp_atexts_2025/sequences/isi_16/len120/seq063_len120_s15_isi-1p0_0p0_16p0.json","11.28","true","t7fzgmcyvoa","","3328","https://mcdermottlab.mit.edu/mturk_stimuli/bjmedina/mem_exp_atexts_2025/mem_stim_22.wav","0","main","","","false","mem_stim_22.wav","false","-1","","1","correct_rejection"
"","","","","","html-keyboard-response","255","1207129","0.0-10.0-1.112","https://mcdermottlab.mit.edu/mturk_stimuli/bjmedina/mem_exp_atexts_2025/sequences/isi_16/len120/seq063_len120_s15_isi-1p0_0p0_16p0.json","11.28","true","t7fzgmcyvoa","","null","<span style=""font-size: 40px"">+</span>","null","","","","","","","","","",""
"","","","","","audio-button-response","256","1209511","0.0-10.0-2.112","https://mcdermottlab.mit.edu/mturk_stimuli/bjmedina/mem_exp_atexts_2025/sequences/isi_16/len120/seq063_len120_s15_isi-1p0_0p0_16p0.json","11.28","true","t7fzgmcyvoa","","2368","https://mcdermottlab.mit.edu/mturk_stimuli/bjmedina/mem_exp_atexts_2025/mem_stim_22.wav","3","main","","","true","mem_stim_22.wav","true","0","","0","miss"
"","","","","","html-keyboard-response","257","1209606","0.0-10.0-1.113","https://mcdermottlab.mit.edu/mturk_stimuli/bjmedina/mem_exp_atexts_2025/sequences/isi_16/len120/seq063_len120_s15_isi-1p0_0p0_16p0.json","11.28","true","t7fzgmcyvoa","","null","<span style=""font-size: 40px"">+</span>","null","","","","","","","","","",""
"","","","","","audio-button-response","258","1211941","0.0-10.0-2.113","https://mcdermottlab.mit.edu/mturk_stimuli/bjmedina/mem_exp_atexts_2025/sequences/isi_16/len120/seq063_len120_s15_isi-1p0_0p0_16p0.json","11.28","true","t7fzgmcyvoa","","2325","https://mcdermottlab.mit.edu/mturk_stimuli/bjmedina/mem_exp_atexts_2025/mem_stim_40.wav","3","main","","","true","mem_stim_40.wav","false","16","","0","miss"
"","","","","","html-keyboard-response","259","1212054","0.0-10.0-1.114","https://mcdermottlab.mit.edu/mturk_stimuli/bjmedina/mem_exp_atexts_2025/sequences/isi_16/len120/seq063_len120_s15_isi-1p0_0p0_16p0.json","11.28","true","t7fzgmcyvoa","","null","<span style=""font-size: 40px"">+</span>","null","","","","","","","","","",""
"","","","","","audio-button-response","260","1214510","0.0-10.0-2.114","https://mcdermottlab.mit.edu/mturk_stimuli/bjmedina/mem_exp_atexts_2025/sequences/isi_16/len120/seq063_len120_s15_isi-1p0_0p0_16p0.json","11.28","true","t7fzgmcyvoa","","2453","https://mcdermottlab.mit.edu/mturk_stimuli/bjmedina/mem_exp_atexts_2025/mem_stim_51.wav","3","main","","","true","mem_stim_51.wav","false","16","","0","miss"
"","","","","","html-keyboard-response","261","1214607","0.0-10.0-1.115","https://mcdermottlab.mit.edu/mturk_stimuli/bjmedina/mem_exp_atexts_2025/sequences/isi_16/len120/seq063_len120_s15_isi-1p0_0p0_16p0.json","11.28","true","t7fzgmcyvoa","","null","<span style=""font-size: 40px"">+</span>","null","","","","","","","","","",""
"","","","","","audio-button-response","262","1219957","0.0-10.0-2.115","https://mcdermottlab.mit.edu/mturk_stimuli/bjmedina/mem_exp_atexts_2025/sequences/isi_16/len120/seq063_len120_s15_isi-1p0_0p0_16p0.json","11.28","true","t7fzgmcyvoa","","3168","https://mcdermottlab.mit.edu/mturk_stimuli/bjmedina/mem_exp_atexts_2025/mem_stim_77.wav","0","main","","","false","mem_stim_77.wav","false","-1","","1","correct_rejection"
"","","","","","html-keyboard-response","263","1220059","0.0-10.0-1.116","https://mcdermottlab.mit.edu/mturk_stimuli/bjmedina/mem_exp_atexts_2025/sequences/isi_16/len120/seq063_len120_s15_isi-1p0_0p0_16p0.json","11.28","true","t7fzgmcyvoa","","null","<span style=""font-size: 40px"">+</span>","null","","","","","","","","","",""
"","","","","","audio-button-response","264","1223078","0.0-10.0-2.116","https://mcdermottlab.mit.edu/mturk_stimuli/bjmedina/mem_exp_atexts_2025/sequences/isi_16/len120/seq063_len120_s15_isi-1p0_0p0_16p0.json","11.28","true","t7fzgmcyvoa","","2219","https://mcdermottlab.mit.edu/mturk_stimuli/bjmedina/mem_exp_atexts_2025/mem_stim_68.wav","2","main","","","false","mem_stim_68.wav","false","-1","","1","correct_rejection"
"","","","","","html-keyboard-response","265","1223202","0.0-10.0-1.117","https://mcdermottlab.mit.edu/mturk_stimuli/bjmedina/mem_exp_atexts_2025/sequences/isi_16/len120/seq063_len120_s15_isi-1p0_0p0_16p0.json","11.28","true","t7fzgmcyvoa","","null","<span style=""font-size: 40px"">+</span>","null","","","","","","","","","",""
"","","","","","audio-button-response","266","1225940","0.0-10.0-2.117","https://mcdermottlab.mit.edu/mturk_stimuli/bjmedina/mem_exp_atexts_2025/sequences/isi_16/len120/seq063_len120_s15_isi-1p0_0p0_16p0.json","11.28","true","t7fzgmcyvoa","","2731","https://mcdermottlab.mit.edu/mturk_stimuli/bjmedina/mem_exp_atexts_2025/mem_stim_35.wav","1","main","","","true","mem_stim_35.wav","false","16","","1","hit"
"","","","","","html-keyboard-response","267","1226037","0.0-10.0-1.118","https://mcdermottlab.mit.edu/mturk_stimuli/bjmedina/mem_exp_atexts_2025/sequences/isi_16/len120/seq063_len120_s15_isi-1p0_0p0_16p0.json","11.28","true","t7fzgmcyvoa","","null","<span style=""font-size: 40px"">+</span>","null","","","","","","","","","",""
"","","","","","audio-button-response","268","1230390","0.0-10.0-2.118","https://mcdermottlab.mit.edu/mturk_stimuli/bjmedina/mem_exp_atexts_2025/sequences/isi_16/len120/seq063_len120_s15_isi-1p0_0p0_16p0.json","11.28","true","t7fzgmcyvoa","","2240","https://mcdermottlab.mit.edu/mturk_stimuli/bjmedina/mem_exp_atexts_2025/mem_stim_7.wav","0","main","","","false","mem_stim_7.wav","false","-1","","1","correct_rejection"
