"success","timeout","failed_images","failed_audio","failed_video","trial_type","trial_index","time_elapsed","internal_node_id","sequence_file","pay","passed_hc","completion_code","view_history","rt","stimulus","response","stim_type","hc_answer","correct_hc","repeat","yt_id","catch","isi","type","is_correct","response_type"
"true","false","[]","[]","[]","preload","0","79","0.0-0.0","https://mcdermottlab.mit.edu/mturk_stimuli/bjmedina/mem_exp_atexts_2025/sequences/isi_16/len120/seq055_len120_s15_isi-1p0_0p0_16p0.json","11.19","true","x2u1rnl6jry","","","","","","","","","","","","","",""
"","","","","","instructions","1","65874","0.0-1.0","https://mcdermottlab.mit.edu/mturk_stimuli/bjmedina/mem_exp_atexts_2025/sequences/isi_16/len120/seq055_len120_s15_isi-1p0_0p0_16p0.json","11.19","true","x2u1rnl6jry","[{""page_index"":0,""viewing_time"":65794}]","65794","","","","","","","","","","","",""
"","","","","","instructions","2","84312","0.0-2.0","https://mcdermottlab.mit.edu/mturk_stimuli/bjmedina/mem_exp_atexts_2025/sequences/isi_16/len120/seq055_len120_s15_isi-1p0_0p0_16p0.json","11.19","true","x2u1rnl6jry","[{""page_index"":0,""viewing_time"":18437}]","18437","","","","","","","","","","","",""
"","","","","","audio-button-response","3","100693","0.0-3.0-0.0","https://mcdermottlab.mit.edu/mturk_stimuli/bjmedina/mem_exp_atexts_2025/sequences/isi_16/len120/seq055_len120_s15_isi-1p0_0p0_16p0.json","11.19","true","x2u1rnl6jry","","16360","https://mcdermottlab.mit.edu/bjmedina/experiments/mem_exp_v01/assets/noise_calib_stim.wav","0","","","","","","","","","",""
"","","","","","audio-button-response","4","107082","0.0-3.1-0.1","https://mcdermottlab.mit.edu/mturk_stimuli/bjmedina/mem_exp_atexts_2025/sequences/isi_16/len120/seq055_len120_s15_isi-1p0_0p0_16p0.json","11.19","true","x2u1rnl6jry","","6392","https://mcdermottlab.mit.edu/bjmedina/experiments/mem_exp_v01/assets/noise_calib_stim.wav","0","","","","","","","","","",""
"","","","","","audio-button-response","5","115458","0.0-3.2-0.2","https://mcdermottlab.mit.edu/mturk_stimuli/bjmedina/mem_exp_atexts_2025/sequences/isi_16/len120/seq055_len120_s15_isi-1p0_0p0_16p0.json","11.19","true","x2u1rnl6jry","","8379","https://mcdermottlab.mit.edu/bjmedina/experiments/mem_exp_v01/assets/noise_calib_stim.wav","0","","","","","","","","","",""
"","","","","","audio-button-response","6","120281","0.0-3.3-0.3","https://mcdermottlab.mit.edu/mturk_stimuli/bjmedina/mem_exp_atexts_2025/sequences/isi_16/len120/seq055_len120_s15_isi-1p0_0p0_16p0.json","11.19","true","x2u1rnl6jry","","4821","https://mcdermottlab.mit.edu/bjmedina/experiments/mem_exp_v01/assets/noise_calib_stim.wav","1","","","","","","","","","",""
"","","","","","instructions","7","127728","0.0-4.0","https://mcdermottlab.mit.edu/mturk_stimuli/bjmedina/mem_exp_atexts_2025/sequences/isi_16/len120/seq055_len120_s15_isi-1p0_0p0_16p0.json","11.19","true","x2u1rnl6jry","[{""page_index"":0,""viewing_time"":7446}]","7447","","","","","","","","","","","",""
"","","","","","audio-button-response","8","133348","0.0-5.0-0.0","https://mcdermottlab.mit.edu/mturk_stimuli/bjmedina/mem_exp_atexts_2025/sequences/isi_16/len120/seq055_len120_s15_isi-1p0_0p0_16p0.json","11.19","true","x2u1rnl6jry","","5200","https://mcdermottlab.mit.edu/bjmedina/experiments/mem_exp_v01/assets/antiphase_HC_OSI.wav","1","hc","2","1","","","","","","",""
"","","","","","audio-button-response","9","138389","0.0-5.0-0.1","https://mcdermottlab.mit.edu/mturk_stimuli/bjmedina/mem_exp_atexts_2025/sequences/isi_16/len120/seq055_len120_s15_isi-1p0_0p0_16p0.json","11.19","true","x2u1rnl6jry","","4560","https://mcdermottlab.mit.edu/bjmedina/experiments/mem_exp_v01/assets/antiphase_HC_IOS.wav","2","hc","3","1","","","","","","",""
"","","","","","audio-button-response","10","144209","0.0-5.0-0.2","https://mcdermottlab.mit.edu/mturk_stimuli/bjmedina/mem_exp_atexts_2025/sequences/isi_16/len120/seq055_len120_s15_isi-1p0_0p0_16p0.json","11.19","true","x2u1rnl6jry","","5509","https://mcdermottlab.mit.edu/bjmedina/experiments/mem_exp_v01/assets/antiphase_HC_SOI.wav","0","hc","1","1","","","","","","",""
"","","","","","audio-button-response","11","149490","0.0-5.0-0.3","https://mcdermottlab.mit.edu/mturk_stimuli/bjmedina/mem_exp_atexts_2025/sequences/isi_16/len120/seq055_len120_s15_isi-1p0_0p0_16p0.json","11.19","true","x2u1rnl6jry","","4808","https://mcdermottlab.mit.edu/bjmedina/experiments/mem_exp_v01/assets/antiphase_HC_OIS.wav","2","hc","3","1","","","","","","",""
"","","","","","audio-button-response","12","155161","0.0-5.0-0.4","https://mcdermottlab.mit.edu/mturk_stimuli/bjmedina/mem_exp_atexts_2025/sequences/isi_16/len120/seq055_len120_s15_isi-1p0_0p0_16p0.json","11.19","true","x2u1rnl6jry","","4821","https://mcdermottlab.mit.edu/bjmedina/experiments/mem_exp_v01/assets/antiphase_HC_ISO.wav","1","hc","2","1","","","","","","",""
"","","","","","audio-button-response","13","160281","0.0-5.0-0.5","https://mcdermottlab.mit.edu/mturk_stimuli/bjmedina/mem_exp_atexts_2025/sequences/isi_16/len120/seq055_len120_s15_isi-1p0_0p0_16p0.json","11.19","true","x2u1rnl6jry","","4640","https://mcdermottlab.mit.edu/bjmedina/experiments/mem_exp_v01/assets/antiphase_HC_SIO.wav","0","hc","1","1","","","","","","",""
"","","","","","html-keyboard-response","14","162257","0.0-6.0","https://mcdermottlab.mit.edu/mturk_stimuli/bjmedina/mem_exp_atexts_2025/sequences/isi_16/len120/seq055_len120_s15_isi-1p0_0p0_16p0.json","11.19","true","x2u1rnl6jry","","1974","<h1>You have finished the LOUDNESS task!</h1> <p>Press space to continue</p>"," ","","","","","","","","","",""
"","","","","","instructions","15","237914","0.0-7.0","https://mcdermottlab.mit.edu/mturk_stimuli/bjmedina/mem_exp_atexts_2025/sequences/isi_16/len120/seq055_len120_s15_isi-1p0_0p0_16p0.json","11.19","true","x2u1rnl6jry","[{""page_index"":0,""viewing_time"":33990},{""page_index"":1,""viewing_time"":14264},{""page_index"":2,""viewing_time"":19862},{""page_index"":3,""viewing_time"":7539}]","75655","","","","","","","","","","","",""
"","","","","","html-keyboard-response","16","237965","0.0-8.0-0.0","https://mcdermottlab.mit.edu/mturk_stimuli/bjmedina/mem_exp_atexts_2025/sequences/isi_16/len120/seq055_len120_s15_isi-1p0_0p0_16p0.json","11.19","true","x2u1rnl6jry","","null","<span style=""font-size: 40px"">+</span>","null","fixation","","","","","","","","",""
"","","","","","audio-button-response","17","242045","0.0-8.0-1.0","https://mcdermottlab.mit.edu/mturk_stimuli/bjmedina/mem_exp_atexts_2025/sequences/isi_16/len120/seq055_len120_s15_isi-1p0_0p0_16p0.json","11.19","true","x2u1rnl6jry","","3000","https://mcdermottlab.mit.edu/mturk_stimuli/bjmedina/mem_exp_v05/mem_stim_1023_f32.wav","0","demo","","","0","","","","","",""
"","","","","","html-keyboard-response","18","242110","0.0-8.0-0.1","https://mcdermottlab.mit.edu/mturk_stimuli/bjmedina/mem_exp_atexts_2025/sequences/isi_16/len120/seq055_len120_s15_isi-1p0_0p0_16p0.json","11.19","true","x2u1rnl6jry","","null","<span style=""font-size: 40px"">+</span>","null","fixation","","","","","","","","",""
"","","","","","audio-button-response","19","245459","0.0-8.0-1.1","https://mcdermottlab.mit.edu/mturk_stimuli/bjmedina/mem_exp_atexts_2025/sequences/isi_16/len120/seq055_len120_s15_isi-1p0_0p0_16p0.json","11.19","true","x2u1rnl6jry","","2771","https://mcdermottlab.mit.edu/mturk_stimuli/bjmedina/mem_exp_v05/mem_stim_1022_f32.wav","0","demo","","","0","","","","","",""
"","","","","","html-keyboard-response","20","245510","0.0-8.0-0.2","https://mcdermottlab.mit.edu/mturk_stimuli/bjmedina/mem_exp_atexts_2025/sequences/isi_16/len120/seq055_len120_s15_isi-1p0_0p0_16p0.json","11.19","true","x2u1rnl6jry","","null","<span style=""font-size: 40px"">+</span>","null","fixation","","","","","","","","",""
"","","","","","audio-button-response","21","254820","0.0-8.0-1.2","https://mcdermottlab.mit.edu/mturk_stimuli/bjmedina/mem_exp_atexts_2025/sequences/isi_16/len120/seq055_len120_s15_isi-1p0_0p0_16p0.json","11.19","true","x2u1rnl6jry","","9312","https://mcdermottlab.mit.edu/mturk_stimuli/bjmedina/mem_exp_v05/mem_stim_1022_f32.wav","3","demo","","","1","","","","","",""
"","","","","","html-keyboard-response","22","254873","0.0-8.0-0.3","https://mcdermottlab.mit.edu/mturk_stimuli/bjmedina/mem_exp_atexts_2025/sequences/isi_16/len120/seq055_len120_s15_isi-1p0_0p0_16p0.json","11.19","true","x2u1rnl6jry","","null","<span style=""font-size: 40px"">+</span>","null","fixation","","","","","","","","",""
"","","","","","audio-button-response","23","258305","0.0-8.0-1.3","https://mcdermottlab.mit.edu/mturk_stimuli/bjmedina/mem_exp_atexts_2025/sequences/isi_16/len120/seq055_len120_s15_isi-1p0_0p0_16p0.json","11.19","true","x2u1rnl6jry","","2779","https://mcdermottlab.mit.edu/mturk_stimuli/bjmedina/mem_exp_v05/mem_stim_1021_f32.wav","0","demo","","","0","","","","","",""
"","","","","","html-keyboard-response","24","258357","0.0-8.0-0.4","https://mcdermottlab.mit.edu/mturk_stimuli/bjmedina/mem_exp_atexts_2025/sequences/isi_16/len120/seq055_len120_s15_isi-1p0_0p0_16p0.json","11.19","true","x2u1rnl6jry","","null","<span style=""font-size: 40px"">+</span>","null","fixation","","","","","","","","",""
"","","","","","audio-button-response","25","261119","0.0-8.0-1.4","https://mcdermottlab.mit.edu/mturk_stimuli/bjmedina/mem_exp_atexts_2025/sequences/isi_16/len120/seq055_len120_s15_isi-1p0_0p0_16p0.json","11.19","true","x2u1rnl6jry","","2760","https://mcdermottlab.mit.edu/mturk_stimuli/bjmedina/mem_exp_v05/mem_stim_1023_f32.wav","0","demo","","","1","","","","","",""
"","","","","","html-keyboard-response","26","261173","0.0-8.0-0.5","https://mcdermottlab.mit.edu/mturk_stimuli/bjmedina/mem_exp_atexts_2025/sequences/isi_16/len120/seq055_len120_s15_isi-1p0_0p0_16p0.json","11.19","true","x2u1rnl6jry","","null","<span style=""font-size: 40px"">+</span>","null","fixation","","","","","","","","",""
"","","","","","audio-button-response","27","264523","0.0-8.0-1.5","https://mcdermottlab.mit.edu/mturk_stimuli/bjmedina/mem_exp_atexts_2025/sequences/isi_16/len120/seq055_len120_s15_isi-1p0_0p0_16p0.json","11.19","true","x2u1rnl6jry","","2800","https://mcdermottlab.mit.edu/mturk_stimuli/bjmedina/mem_exp_v05/mem_stim_1020_f32.wav","0","demo","","","0","","","","","",""
"","","","","","html-keyboard-response","28","264591","0.0-8.0-0.6","https://mcdermottlab.mit.edu/mturk_stimuli/bjmedina/mem_exp_atexts_2025/sequences/isi_16/len120/seq055_len120_s15_isi-1p0_0p0_16p0.json","11.19","true","x2u1rnl6jry","","null","<span style=""font-size: 40px"">+</span>","null","fixation","","","","","","","","",""
"","","","","","audio-button-response","29","267898","0.0-8.0-1.6","https://mcdermottlab.mit.edu/mturk_stimuli/bjmedina/mem_exp_atexts_2025/sequences/isi_16/len120/seq055_len120_s15_isi-1p0_0p0_16p0.json","11.19","true","x2u1rnl6jry","","2891","https://mcdermottlab.mit.edu/mturk_stimuli/bjmedina/mem_exp_v05/mem_stim_1019_f32.wav","0","demo","","","0","","","","","",""
"","","","","","html-keyboard-response","30","267953","0.0-8.0-0.7","https://mcdermottlab.mit.edu/mturk_stimuli/bjmedina/mem_exp_atexts_2025/sequences/isi_16/len120/seq055_len120_s15_isi-1p0_0p0_16p0.json","11.19","true","x2u1rnl6jry","","null","<span style=""font-size: 40px"">+</span>","null","fixation","","","","","","","","",""
"","","","","","audio-button-response","31","271221","0.0-8.0-1.7","https://mcdermottlab.mit.edu/mturk_stimuli/bjmedina/mem_exp_atexts_2025/sequences/isi_16/len120/seq055_len120_s15_isi-1p0_0p0_16p0.json","11.19","true","x2u1rnl6jry","","3261","https://mcdermottlab.mit.edu/mturk_stimuli/bjmedina/mem_exp_v05/mem_stim_1021_f32.wav","3","demo","","","1","","","","","",""
"","","","","","html-keyboard-response","32","272820","0.0-9.0","https://mcdermottlab.mit.edu/mturk_stimuli/bjmedina/mem_exp_atexts_2025/sequences/isi_16/len120/seq055_len120_s15_isi-1p0_0p0_16p0.json","11.19","true","x2u1rnl6jry","","1599","<p>You are now ready to start the experiment. Press SPACE when you are ready to start.</p>"," ","","","","","","","","","",""
"","","","","","html-keyboard-response","33","272872","0.0-10.0-1.0","https://mcdermottlab.mit.edu/mturk_stimuli/bjmedina/mem_exp_atexts_2025/sequences/isi_16/len120/seq055_len120_s15_isi-1p0_0p0_16p0.json","11.19","true","x2u1rnl6jry","","null","<span style=""font-size: 40px"">+</span>","null","","","","","","","","","",""
"","","","","","audio-button-response","34","276213","0.0-10.0-2.0","https://mcdermottlab.mit.edu/mturk_stimuli/bjmedina/mem_exp_atexts_2025/sequences/isi_16/len120/seq055_len120_s15_isi-1p0_0p0_16p0.json","11.19","true","x2u1rnl6jry","","2749","https://mcdermottlab.mit.edu/mturk_stimuli/bjmedina/mem_exp_atexts_2025/mem_stim_66.wav","0","main","","","false","mem_stim_66.wav","false","-1","","1","correct_rejection"
"","","","","","html-keyboard-response","35","276272","0.0-10.0-1.1","https://mcdermottlab.mit.edu/mturk_stimuli/bjmedina/mem_exp_atexts_2025/sequences/isi_16/len120/seq055_len120_s15_isi-1p0_0p0_16p0.json","11.19","true","x2u1rnl6jry","","null","<span style=""font-size: 40px"">+</span>","null","","","","","","","","","",""
"","","","","","audio-button-response","36","279685","0.0-10.0-2.1","https://mcdermottlab.mit.edu/mturk_stimuli/bjmedina/mem_exp_atexts_2025/sequences/isi_16/len120/seq055_len120_s15_isi-1p0_0p0_16p0.json","11.19","true","x2u1rnl6jry","","2869","https://mcdermottlab.mit.edu/mturk_stimuli/bjmedina/mem_exp_atexts_2025/mem_stim_23.wav","0","main","","","false","mem_stim_23.wav","false","-1","","1","correct_rejection"
"","","","","","html-keyboard-response","37","279753","0.0-10.0-1.2","https://mcdermottlab.mit.edu/mturk_stimuli/bjmedina/mem_exp_atexts_2025/sequences/isi_16/len120/seq055_len120_s15_isi-1p0_0p0_16p0.json","11.19","true","x2u1rnl6jry","","null","<span style=""font-size: 40px"">+</span>","null","","","","","","","","","",""
"","","","","","audio-button-response","38","282409","0.0-10.0-2.2","https://mcdermottlab.mit.edu/mturk_stimuli/bjmedina/mem_exp_atexts_2025/sequences/isi_16/len120/seq055_len120_s15_isi-1p0_0p0_16p0.json","11.19","true","x2u1rnl6jry","","2651","https://mcdermottlab.mit.edu/mturk_stimuli/bjmedina/mem_exp_atexts_2025/mem_stim_23.wav","3","main","","","true","mem_stim_23.wav","true","0","","0","miss"
"","","","","","html-keyboard-response","39","282471","0.0-10.0-1.3","https://mcdermottlab.mit.edu/mturk_stimuli/bjmedina/mem_exp_atexts_2025/sequences/isi_16/len120/seq055_len120_s15_isi-1p0_0p0_16p0.json","11.19","true","x2u1rnl6jry","","null","<span style=""font-size: 40px"">+</span>","null","","","","","","","","","",""
"","","","","","audio-button-response","40","286074","0.0-10.0-2.3","https://mcdermottlab.mit.edu/mturk_stimuli/bjmedina/mem_exp_atexts_2025/sequences/isi_16/len120/seq055_len120_s15_isi-1p0_0p0_16p0.json","11.19","true","x2u1rnl6jry","","2749","https://mcdermottlab.mit.edu/mturk_stimuli/bjmedina/mem_exp_atexts_2025/mem_stim_72.wav","0","main","","","false","mem_stim_72.wav","false","-1","","1","correct_rejection"
"","","","","","html-keyboard-response","41","286133","0.0-10.0-1.4","https://mcdermottlab.mit.edu/mturk_stimuli/bjmedina/mem_exp_atexts_2025/sequences/isi_16/len120/seq055_len120_s15_isi-1p0_0p0_16p0.json","11.19","true","x2u1rnl6jry","","null","<span style=""font-size: 40px"">+</span>","null","","","","","","","","","",""
"","","","","","audio-button-response","42","289388","0.0-10.0-2.4","https://mcdermottlab.mit.edu/mturk_stimuli/bjmedina/mem_exp_atexts_2025/sequences/isi_16/len120/seq055_len120_s15_isi-1p0_0p0_16p0.json","11.19","true","x2u1rnl6jry","","2709","https://mcdermottlab.mit.edu/mturk_stimuli/bjmedina/mem_exp_atexts_2025/mem_stim_16.wav","0","main","","","false","mem_stim_16.wav","false","-1","","1","correct_rejection"
"","","","","","html-keyboard-response","43","289453","0.0-10.0-1.5","https://mcdermottlab.mit.edu/mturk_stimuli/bjmedina/mem_exp_atexts_2025/sequences/isi_16/len120/seq055_len120_s15_isi-1p0_0p0_16p0.json","11.19","true","x2u1rnl6jry","","null","<span style=""font-size: 40px"">+</span>","null","","","","","","","","","",""
"","","","","","audio-button-response","44","292621","0.0-10.0-2.5","https://mcdermottlab.mit.edu/mturk_stimuli/bjmedina/mem_exp_atexts_2025/sequences/isi_16/len120/seq055_len120_s15_isi-1p0_0p0_16p0.json","11.19","true","x2u1rnl6jry","","2621","https://mcdermottlab.mit.edu/mturk_stimuli/bjmedina/mem_exp_atexts_2025/mem_stim_8.wav","0","main","","","false","mem_stim_8.wav","false","-1","","1","correct_rejection"
"","","","","","html-keyboard-response","45","292683","0.0-10.0-1.6","https://mcdermottlab.mit.edu/mturk_stimuli/bjmedina/mem_exp_atexts_2025/sequences/isi_16/len120/seq055_len120_s15_isi-1p0_0p0_16p0.json","11.19","true","x2u1rnl6jry","","null","<span style=""font-size: 40px"">+</span>","null","","","","","","","","","",""
"","","","","","audio-button-response","46","295847","0.0-10.0-2.6","https://mcdermottlab.mit.edu/mturk_stimuli/bjmedina/mem_exp_atexts_2025/sequences/isi_16/len120/seq055_len120_s15_isi-1p0_0p0_16p0.json","11.19","true","x2u1rnl6jry","","2811","https://mcdermottlab.mit.edu/mturk_stimuli/bjmedina/mem_exp_atexts_2025/mem_stim_38.wav","0","main","","","false","mem_stim_38.wav","false","-1","","1","correct_rejection"
"","","","","","html-keyboard-response","47","295920","0.0-10.0-1.7","https://mcdermottlab.mit.edu/mturk_stimuli/bjmedina/mem_exp_atexts_2025/sequences/isi_16/len120/seq055_len120_s15_isi-1p0_0p0_16p0.json","11.19","true","x2u1rnl6jry","","null","<span style=""font-size: 40px"">+</span>","null","","","","","","","","","",""
"","","","","","audio-button-response","48","298971","0.0-10.0-2.7","https://mcdermottlab.mit.edu/mturk_stimuli/bjmedina/mem_exp_atexts_2025/sequences/isi_16/len120/seq055_len120_s15_isi-1p0_0p0_16p0.json","11.19","true","x2u1rnl6jry","","2589","https://mcdermottlab.mit.edu/mturk_stimuli/bjmedina/mem_exp_atexts_2025/mem_stim_35.wav","0","main","","","false","mem_stim_35.wav","false","-1","","1","correct_rejection"
"","","","","","html-keyboard-response","49","299037","0.0-10.0-1.8","https://mcdermottlab.mit.edu/mturk_stimuli/bjmedina/mem_exp_atexts_2025/sequences/isi_16/len120/seq055_len120_s15_isi-1p0_0p0_16p0.json","11.19","true","x2u1rnl6jry","","null","<span style=""font-size: 40px"">+</span>","null","","","","","","","","","",""
"","","","","","audio-button-response","50","301826","0.0-10.0-2.8","https://mcdermottlab.mit.edu/mturk_stimuli/bjmedina/mem_exp_atexts_2025/sequences/isi_16/len120/seq055_len120_s15_isi-1p0_0p0_16p0.json","11.19","true","x2u1rnl6jry","","2459","https://mcdermottlab.mit.edu/mturk_stimuli/bjmedina/mem_exp_atexts_2025/mem_stim_60.wav","0","main","","","false","mem_stim_60.wav","false","-1","","1","correct_rejection"
"","","","","","html-keyboard-response","51","301885","0.0-10.0-1.9","https://mcdermottlab.mit.edu/mturk_stimuli/bjmedina/mem_exp_atexts_2025/sequences/isi_16/len120/seq055_len120_s15_isi-1p0_0p0_16p0.json","11.19","true","x2u1rnl6jry","","null","<span style=""font-size: 40px"">+</span>","null","","","","","","","","","",""
"","","","","","audio-button-response","52","304929","0.0-10.0-2.9","https://mcdermottlab.mit.edu/mturk_stimuli/bjmedina/mem_exp_atexts_2025/sequences/isi_16/len120/seq055_len120_s15_isi-1p0_0p0_16p0.json","11.19","true","x2u1rnl6jry","","2531","https://mcdermottlab.mit.edu/mturk_stimuli/bjmedina/mem_exp_atexts_2025/mem_stim_75.wav","0","main","","","false","mem_stim_75.wav","false","-1","","1","correct_rejection"
"","","","","","html-keyboard-response","53","304983","0.0-10.0-1.10","https://mcdermottlab.mit.edu/mturk_stimuli/bjmedina/mem_exp_atexts_2025/sequences/isi_16/len120/seq055_len120_s15_isi-1p0_0p0_16p0.json","11.19","true","x2u1rnl6jry","","null","<span style=""font-size: 40px"">+</span>","null","","","","","","","","","",""
"","","","","","audio-button-response","54","308435","0.0-10.0-2.10","https://mcdermottlab.mit.edu/mturk_stimuli/bjmedina/mem_exp_atexts_2025/sequences/isi_16/len120/seq055_len120_s15_isi-1p0_0p0_16p0.json","11.19","true","x2u1rnl6jry","","2949","https://mcdermottlab.mit.edu/mturk_stimuli/bjmedina/mem_exp_atexts_2025/mem_stim_55.wav","3","main","","","false","mem_stim_55.wav","false","-1","","1","correct_rejection"
"","","","","","html-keyboard-response","55","308502","0.0-10.0-1.11","https://mcdermottlab.mit.edu/mturk_stimuli/bjmedina/mem_exp_atexts_2025/sequences/isi_16/len120/seq055_len120_s15_isi-1p0_0p0_16p0.json","11.19","true","x2u1rnl6jry","","null","<span style=""font-size: 40px"">+</span>","null","","","","","","","","","",""
"","","","","","audio-button-response","56","312078","0.0-10.0-2.11","https://mcdermottlab.mit.edu/mturk_stimuli/bjmedina/mem_exp_atexts_2025/sequences/isi_16/len120/seq055_len120_s15_isi-1p0_0p0_16p0.json","11.19","true","x2u1rnl6jry","","3000","https://mcdermottlab.mit.edu/mturk_stimuli/bjmedina/mem_exp_atexts_2025/mem_stim_11.wav","1","main","","","false","mem_stim_11.wav","false","-1","","0","false_alarm"
"","","","","","html-keyboard-response","57","312153","0.0-10.0-1.12","https://mcdermottlab.mit.edu/mturk_stimuli/bjmedina/mem_exp_atexts_2025/sequences/isi_16/len120/seq055_len120_s15_isi-1p0_0p0_16p0.json","11.19","true","x2u1rnl6jry","","null","<span style=""font-size: 40px"">+</span>","null","","","","","","","","","",""
"","","","","","audio-button-response","58","315931","0.0-10.0-2.12","https://mcdermottlab.mit.edu/mturk_stimuli/bjmedina/mem_exp_atexts_2025/sequences/isi_16/len120/seq055_len120_s15_isi-1p0_0p0_16p0.json","11.19","true","x2u1rnl6jry","","3091","https://mcdermottlab.mit.edu/mturk_stimuli/bjmedina/mem_exp_atexts_2025/mem_stim_21.wav","2","main","","","false","mem_stim_21.wav","false","-1","","1","correct_rejection"
"","","","","","html-keyboard-response","59","316001","0.0-10.0-1.13","https://mcdermottlab.mit.edu/mturk_stimuli/bjmedina/mem_exp_atexts_2025/sequences/isi_16/len120/seq055_len120_s15_isi-1p0_0p0_16p0.json","11.19","true","x2u1rnl6jry","","null","<span style=""font-size: 40px"">+</span>","null","","","","","","","","","",""
"","","","","","audio-button-response","60","318497","0.0-10.0-2.13","https://mcdermottlab.mit.edu/mturk_stimuli/bjmedina/mem_exp_atexts_2025/sequences/isi_16/len120/seq055_len120_s15_isi-1p0_0p0_16p0.json","11.19","true","x2u1rnl6jry","","2501","https://mcdermottlab.mit.edu/mturk_stimuli/bjmedina/mem_exp_atexts_2025/mem_stim_21.wav","3","main","","","true","mem_stim_21.wav","true","0","","0","miss"
"","","","","","html-keyboard-response","61","318567","0.0-10.0-1.14","https://mcdermottlab.mit.edu/mturk_stimuli/bjmedina/mem_exp_atexts_2025/sequences/isi_16/len120/seq055_len120_s15_isi-1p0_0p0_16p0.json","11.19","true","x2u1rnl6jry","","null","<span style=""font-size: 40px"">+</span>","null","","","","","","","","","",""
"","","","","","audio-button-response","62","322069","0.0-10.0-2.14","https://mcdermottlab.mit.edu/mturk_stimuli/bjmedina/mem_exp_atexts_2025/sequences/isi_16/len120/seq055_len120_s15_isi-1p0_0p0_16p0.json","11.19","true","x2u1rnl6jry","","3120","https://mcdermottlab.mit.edu/mturk_stimuli/bjmedina/mem_exp_atexts_2025/mem_stim_52.wav","0","main","","","false","mem_stim_52.wav","false","-1","","1","correct_rejection"
"","","","","","html-keyboard-response","63","322133","0.0-10.0-1.15","https://mcdermottlab.mit.edu/mturk_stimuli/bjmedina/mem_exp_atexts_2025/sequences/isi_16/len120/seq055_len120_s15_isi-1p0_0p0_16p0.json","11.19","true","x2u1rnl6jry","","null","<span style=""font-size: 40px"">+</span>","null","","","","","","","","","",""
"","","","","","audio-button-response","64","325961","0.0-10.0-2.15","https://mcdermottlab.mit.edu/mturk_stimuli/bjmedina/mem_exp_atexts_2025/sequences/isi_16/len120/seq055_len120_s15_isi-1p0_0p0_16p0.json","11.19","true","x2u1rnl6jry","","2789","https://mcdermottlab.mit.edu/mturk_stimuli/bjmedina/mem_exp_atexts_2025/mem_stim_58.wav","0","main","","","false","mem_stim_58.wav","false","-1","","1","correct_rejection"
"","","","","","html-keyboard-response","65","326032","0.0-10.0-1.16","https://mcdermottlab.mit.edu/mturk_stimuli/bjmedina/mem_exp_atexts_2025/sequences/isi_16/len120/seq055_len120_s15_isi-1p0_0p0_16p0.json","11.19","true","x2u1rnl6jry","","null","<span style=""font-size: 40px"">+</span>","null","","","","","","","","","",""
"","","","","","audio-button-response","66","329886","0.0-10.0-2.16","https://mcdermottlab.mit.edu/mturk_stimuli/bjmedina/mem_exp_atexts_2025/sequences/isi_16/len120/seq055_len120_s15_isi-1p0_0p0_16p0.json","11.19","true","x2u1rnl6jry","","3341","https://mcdermottlab.mit.edu/mturk_stimuli/bjmedina/mem_exp_atexts_2025/mem_stim_61.wav","2","main","","","false","mem_stim_61.wav","false","-1","","1","correct_rejection"
"","","","","","html-keyboard-response","67","329949","0.0-10.0-1.17","https://mcdermottlab.mit.edu/mturk_stimuli/bjmedina/mem_exp_atexts_2025/sequences/isi_16/len120/seq055_len120_s15_isi-1p0_0p0_16p0.json","11.19","true","x2u1rnl6jry","","null","<span style=""font-size: 40px"">+</span>","null","","","","","","","","","",""
"","","","","","audio-button-response","68","333249","0.0-10.0-2.17","https://mcdermottlab.mit.edu/mturk_stimuli/bjmedina/mem_exp_atexts_2025/sequences/isi_16/len120/seq055_len120_s15_isi-1p0_0p0_16p0.json","11.19","true","x2u1rnl6jry","","2701","https://mcdermottlab.mit.edu/mturk_stimuli/bjmedina/mem_exp_atexts_2025/mem_stim_26.wav","3","main","","","false","mem_stim_26.wav","false","-1","","1","correct_rejection"
"","","","","","html-keyboard-response","69","333313","0.0-10.0-1.18","https://mcdermottlab.mit.edu/mturk_stimuli/bjmedina/mem_exp_atexts_2025/sequences/isi_16/len120/seq055_len120_s15_isi-1p0_0p0_16p0.json","11.19","true","x2u1rnl6jry","","null","<span style=""font-size: 40px"">+</span>","null","","","","","","","","","",""
"","","","","","audio-button-response","70","335905","0.0-10.0-2.18","https://mcdermottlab.mit.edu/mturk_stimuli/bjmedina/mem_exp_atexts_2025/sequences/isi_16/len120/seq055_len120_s15_isi-1p0_0p0_16p0.json","11.19","true","x2u1rnl6jry","","2589","https://mcdermottlab.mit.edu/mturk_stimuli/bjmedina/mem_exp_atexts_2025/mem_stim_26.wav","3","main","","","true","mem_stim_26.wav","true","0","","0","miss"
"","","","","","html-keyboard-response","71","335963","0.0-10.0-1.19","https://mcdermottlab.mit.edu/mturk_stimuli/bjmedina/mem_exp_atexts_2025/sequences/isi_16/len120/seq055_len120_s15_isi-1p0_0p0_16p0.json","11.19","true","x2u1rnl6jry","","null","<span style=""font-size: 40px"">+</span>","null","","","","","","","","","",""
"","","","","","audio-button-response","72","339948","0.0-10.0-2.19","https://mcdermottlab.mit.edu/mturk_stimuli/bjmedina/mem_exp_atexts_2025/sequences/isi_16/len120/seq055_len120_s15_isi-1p0_0p0_16p0.json","11.19","true","x2u1rnl6jry","","3048","https://mcdermottlab.mit.edu/mturk_stimuli/bjmedina/mem_exp_atexts_2025/mem_stim_3.wav","0","main","","","false","mem_stim_3.wav","false","-1","","1","correct_rejection"
"","","","","","html-keyboard-response","73","340013","0.0-10.0-1.20","https://mcdermottlab.mit.edu/mturk_stimuli/bjmedina/mem_exp_atexts_2025/sequences/isi_16/len120/seq055_len120_s15_isi-1p0_0p0_16p0.json","11.19","true","x2u1rnl6jry","","null","<span style=""font-size: 40px"">+</span>","null","","","","","","","","","",""
"","","","","","audio-button-response","74","344039","0.0-10.0-2.20","https://mcdermottlab.mit.edu/mturk_stimuli/bjmedina/mem_exp_atexts_2025/sequences/isi_16/len120/seq055_len120_s15_isi-1p0_0p0_16p0.json","11.19","true","x2u1rnl6jry","","2851","https://mcdermottlab.mit.edu/mturk_stimuli/bjmedina/mem_exp_atexts_2025/mem_stim_69.wav","1","main","","","false","mem_stim_69.wav","false","-1","","0","false_alarm"
"","","","","","html-keyboard-response","75","344093","0.0-10.0-1.21","https://mcdermottlab.mit.edu/mturk_stimuli/bjmedina/mem_exp_atexts_2025/sequences/isi_16/len120/seq055_len120_s15_isi-1p0_0p0_16p0.json","11.19","true","x2u1rnl6jry","","null","<span style=""font-size: 40px"">+</span>","null","","","","","","","","","",""
"","","","","","audio-button-response","76","347994","0.0-10.0-2.21","https://mcdermottlab.mit.edu/mturk_stimuli/bjmedina/mem_exp_atexts_2025/sequences/isi_16/len120/seq055_len120_s15_isi-1p0_0p0_16p0.json","11.19","true","x2u1rnl6jry","","3400","https://mcdermottlab.mit.edu/mturk_stimuli/bjmedina/mem_exp_atexts_2025/mem_stim_24.wav","2","main","","","false","mem_stim_24.wav","false","-1","","1","correct_rejection"
"","","","","","html-keyboard-response","77","348062","0.0-10.0-1.22","https://mcdermottlab.mit.edu/mturk_stimuli/bjmedina/mem_exp_atexts_2025/sequences/isi_16/len120/seq055_len120_s15_isi-1p0_0p0_16p0.json","11.19","true","x2u1rnl6jry","","null","<span style=""font-size: 40px"">+</span>","null","","","","","","","","","",""
"","","","","","audio-button-response","78","350817","0.0-10.0-2.22","https://mcdermottlab.mit.edu/mturk_stimuli/bjmedina/mem_exp_atexts_2025/sequences/isi_16/len120/seq055_len120_s15_isi-1p0_0p0_16p0.json","11.19","true","x2u1rnl6jry","","2752","https://mcdermottlab.mit.edu/mturk_stimuli/bjmedina/mem_exp_atexts_2025/mem_stim_24.wav","3","main","","","true","mem_stim_24.wav","true","0","","0","miss"
"","","","","","html-keyboard-response","79","350879","0.0-10.0-1.23","https://mcdermottlab.mit.edu/mturk_stimuli/bjmedina/mem_exp_atexts_2025/sequences/isi_16/len120/seq055_len120_s15_isi-1p0_0p0_16p0.json","11.19","true","x2u1rnl6jry","","null","<span style=""font-size: 40px"">+</span>","null","","","","","","","","","",""
"","","","","","audio-button-response","80","353584","0.0-10.0-2.23","https://mcdermottlab.mit.edu/mturk_stimuli/bjmedina/mem_exp_atexts_2025/sequences/isi_16/len120/seq055_len120_s15_isi-1p0_0p0_16p0.json","11.19","true","x2u1rnl6jry","","2701","https://mcdermottlab.mit.edu/mturk_stimuli/bjmedina/mem_exp_atexts_2025/mem_stim_38.wav","2","main","","","true","mem_stim_38.wav","false","16","","0","miss"
"","","","","","html-keyboard-response","81","353643","0.0-10.0-1.24","https://mcdermottlab.mit.edu/mturk_stimuli/bjmedina/mem_exp_atexts_2025/sequences/isi_16/len120/seq055_len120_s15_isi-1p0_0p0_16p0.json","11.19","true","x2u1rnl6jry","","null","<span style=""font-size: 40px"">+</span>","null","","","","","","","","","",""
"","","","","","audio-button-response","82","356216","0.0-10.0-2.24","https://mcdermottlab.mit.edu/mturk_stimuli/bjmedina/mem_exp_atexts_2025/sequences/isi_16/len120/seq055_len120_s15_isi-1p0_0p0_16p0.json","11.19","true","x2u1rnl6jry","","2571","https://mcdermottlab.mit.edu/mturk_stimuli/bjmedina/mem_exp_atexts_2025/mem_stim_35.wav","3","main","","","true","mem_stim_35.wav","false","16","","0","miss"
"","","","","","html-keyboard-response","83","356273","0.0-10.0-1.25","https://mcdermottlab.mit.edu/mturk_stimuli/bjmedina/mem_exp_atexts_2025/sequences/isi_16/len120/seq055_len120_s15_isi-1p0_0p0_16p0.json","11.19","true","x2u1rnl6jry","","null","<span style=""font-size: 40px"">+</span>","null","","","","","","","","","",""
"","","","","","audio-button-response","84","359501","0.0-10.0-2.25","https://mcdermottlab.mit.edu/mturk_stimuli/bjmedina/mem_exp_atexts_2025/sequences/isi_16/len120/seq055_len120_s15_isi-1p0_0p0_16p0.json","11.19","true","x2u1rnl6jry","","2712","https://mcdermottlab.mit.edu/mturk_stimuli/bjmedina/mem_exp_atexts_2025/mem_stim_29.wav","0","main","","","false","mem_stim_29.wav","false","-1","","1","correct_rejection"
"","","","","","html-keyboard-response","85","359562","0.0-10.0-1.26","https://mcdermottlab.mit.edu/mturk_stimuli/bjmedina/mem_exp_atexts_2025/sequences/isi_16/len120/seq055_len120_s15_isi-1p0_0p0_16p0.json","11.19","true","x2u1rnl6jry","","null","<span style=""font-size: 40px"">+</span>","null","","","","","","","","","",""
"","","","","","audio-button-response","86","362097","0.0-10.0-2.26","https://mcdermottlab.mit.edu/mturk_stimuli/bjmedina/mem_exp_atexts_2025/sequences/isi_16/len120/seq055_len120_s15_isi-1p0_0p0_16p0.json","11.19","true","x2u1rnl6jry","","2541","https://mcdermottlab.mit.edu/mturk_stimuli/bjmedina/mem_exp_atexts_2025/mem_stim_29.wav","3","main","","","true","mem_stim_29.wav","true","0","","0","miss"
"","","","","","html-keyboard-response","87","362162","0.0-10.0-1.27","https://mcdermottlab.mit.edu/mturk_stimuli/bjmedina/mem_exp_atexts_2025/sequences/isi_16/len120/seq055_len120_s15_isi-1p0_0p0_16p0.json","11.19","true","x2u1rnl6jry","","null","<span style=""font-size: 40px"">+</span>","null","","","","","","","","","",""
"","","","","","audio-button-response","88","365101","0.0-10.0-2.27","https://mcdermottlab.mit.edu/mturk_stimuli/bjmedina/mem_exp_atexts_2025/sequences/isi_16/len120/seq055_len120_s15_isi-1p0_0p0_16p0.json","11.19","true","x2u1rnl6jry","","2931","https://mcdermottlab.mit.edu/mturk_stimuli/bjmedina/mem_exp_atexts_2025/mem_stim_55.wav","1","main","","","true","mem_stim_55.wav","false","16","","1","hit"
"","","","","","html-keyboard-response","89","365162","0.0-10.0-1.28","https://mcdermottlab.mit.edu/mturk_stimuli/bjmedina/mem_exp_atexts_2025/sequences/isi_16/len120/seq055_len120_s15_isi-1p0_0p0_16p0.json","11.19","true","x2u1rnl6jry","","null","<span style=""font-size: 40px"">+</span>","null","","","","","","","","","",""
"","","","","","audio-button-response","90","368397","0.0-10.0-2.28","https://mcdermottlab.mit.edu/mturk_stimuli/bjmedina/mem_exp_atexts_2025/sequences/isi_16/len120/seq055_len120_s15_isi-1p0_0p0_16p0.json","11.19","true","x2u1rnl6jry","","2709","https://mcdermottlab.mit.edu/mturk_stimuli/bjmedina/mem_exp_atexts_2025/mem_stim_15.wav","3","main","","","false","mem_stim_15.wav","false","-1","","1","correct_rejection"
"","","","","","html-keyboard-response","91","368460","0.0-10.0-1.29","https://mcdermottlab.mit.edu/mturk_stimuli/bjmedina/mem_exp_atexts_2025/sequences/isi_16/len120/seq055_len120_s15_isi-1p0_0p0_16p0.json","11.19","true","x2u1rnl6jry","","null","<span style=""font-size: 40px"">+</span>","null","","","","","","","","","",""
"","","","","","audio-button-response","92","372009","0.0-10.0-2.29","https://mcdermottlab.mit.edu/mturk_stimuli/bjmedina/mem_exp_atexts_2025/sequences/isi_16/len120/seq055_len120_s15_isi-1p0_0p0_16p0.json","11.19","true","x2u1rnl6jry","","2869","https://mcdermottlab.mit.edu/mturk_stimuli/bjmedina/mem_exp_atexts_2025/mem_stim_78.wav","0","main","","","false","mem_stim_78.wav","false","-1","","1","correct_rejection"
"","","","","","html-keyboard-response","93","372075","0.0-10.0-1.30","https://mcdermottlab.mit.edu/mturk_stimuli/bjmedina/mem_exp_atexts_2025/sequences/isi_16/len120/seq055_len120_s15_isi-1p0_0p0_16p0.json","11.19","true","x2u1rnl6jry","","null","<span style=""font-size: 40px"">+</span>","null","","","","","","","","","",""
"","","","","","audio-button-response","94","375194","0.0-10.0-2.30","https://mcdermottlab.mit.edu/mturk_stimuli/bjmedina/mem_exp_atexts_2025/sequences/isi_16/len120/seq055_len120_s15_isi-1p0_0p0_16p0.json","11.19","true","x2u1rnl6jry","","2571","https://mcdermottlab.mit.edu/mturk_stimuli/bjmedina/mem_exp_atexts_2025/mem_stim_65.wav","0","main","","","false","mem_stim_65.wav","false","-1","","1","correct_rejection"
"","","","","","html-keyboard-response","95","375259","0.0-10.0-1.31","https://mcdermottlab.mit.edu/mturk_stimuli/bjmedina/mem_exp_atexts_2025/sequences/isi_16/len120/seq055_len120_s15_isi-1p0_0p0_16p0.json","11.19","true","x2u1rnl6jry","","null","<span style=""font-size: 40px"">+</span>","null","","","","","","","","","",""
"","","","","","audio-button-response","96","377260","0.0-10.0-2.31","https://mcdermottlab.mit.edu/mturk_stimuli/bjmedina/mem_exp_atexts_2025/sequences/isi_16/len120/seq055_len120_s15_isi-1p0_0p0_16p0.json","11.19","true","x2u1rnl6jry","","2000","https://mcdermottlab.mit.edu/mturk_stimuli/bjmedina/mem_exp_atexts_2025/mem_stim_52.wav","3","main","","","true","mem_stim_52.wav","false","16","","0","miss"
"","","","","","html-keyboard-response","97","377327","0.0-10.0-1.32","https://mcdermottlab.mit.edu/mturk_stimuli/bjmedina/mem_exp_atexts_2025/sequences/isi_16/len120/seq055_len120_s15_isi-1p0_0p0_16p0.json","11.19","true","x2u1rnl6jry","","null","<span style=""font-size: 40px"">+</span>","null","","","","","","","","","",""
"","","","","","audio-button-response","98","380575","0.0-10.0-2.32","https://mcdermottlab.mit.edu/mturk_stimuli/bjmedina/mem_exp_atexts_2025/sequences/isi_16/len120/seq055_len120_s15_isi-1p0_0p0_16p0.json","11.19","true","x2u1rnl6jry","","3251","https://mcdermottlab.mit.edu/mturk_stimuli/bjmedina/mem_exp_atexts_2025/mem_stim_58.wav","2","main","","","true","mem_stim_58.wav","false","16","","0","miss"
"","","","","","html-keyboard-response","99","380643","0.0-10.0-1.33","https://mcdermottlab.mit.edu/mturk_stimuli/bjmedina/mem_exp_atexts_2025/sequences/isi_16/len120/seq055_len120_s15_isi-1p0_0p0_16p0.json","11.19","true","x2u1rnl6jry","","null","<span style=""font-size: 40px"">+</span>","null","","","","","","","","","",""
"","","","","","audio-button-response","100","383740","0.0-10.0-2.33","https://mcdermottlab.mit.edu/mturk_stimuli/bjmedina/mem_exp_atexts_2025/sequences/isi_16/len120/seq055_len120_s15_isi-1p0_0p0_16p0.json","11.19","true","x2u1rnl6jry","","2491","https://mcdermottlab.mit.edu/mturk_stimuli/bjmedina/mem_exp_atexts_2025/mem_stim_36.wav","3","main","","","false","mem_stim_36.wav","false","-1","","1","correct_rejection"
"","","","","","html-keyboard-response","101","383809","0.0-10.0-1.34","https://mcdermottlab.mit.edu/mturk_stimuli/bjmedina/mem_exp_atexts_2025/sequences/isi_16/len120/seq055_len120_s15_isi-1p0_0p0_16p0.json","11.19","true","x2u1rnl6jry","","null","<span style=""font-size: 40px"">+</span>","null","","","","","","","","","",""
"","","","","","audio-button-response","102","386945","0.0-10.0-2.34","https://mcdermottlab.mit.edu/mturk_stimuli/bjmedina/mem_exp_atexts_2025/sequences/isi_16/len120/seq055_len120_s15_isi-1p0_0p0_16p0.json","11.19","true","x2u1rnl6jry","","2640","https://mcdermottlab.mit.edu/mturk_stimuli/bjmedina/mem_exp_atexts_2025/mem_stim_49.wav","0","main","","","false","mem_stim_49.wav","false","-1","","1","correct_rejection"
"","","","","","html-keyboard-response","103","387003","0.0-10.0-1.35","https://mcdermottlab.mit.edu/mturk_stimuli/bjmedina/mem_exp_atexts_2025/sequences/isi_16/len120/seq055_len120_s15_isi-1p0_0p0_16p0.json","11.19","true","x2u1rnl6jry","","null","<span style=""font-size: 40px"">+</span>","null","","","","","","","","","",""
"","","","","","audio-button-response","104","390018","0.0-10.0-2.35","https://mcdermottlab.mit.edu/mturk_stimuli/bjmedina/mem_exp_atexts_2025/sequences/isi_16/len120/seq055_len120_s15_isi-1p0_0p0_16p0.json","11.19","true","x2u1rnl6jry","","2480","https://mcdermottlab.mit.edu/mturk_stimuli/bjmedina/mem_exp_atexts_2025/mem_stim_41.wav","0","main","","","false","mem_stim_41.wav","false","-1","","1","correct_rejection"
"","","","","","html-keyboard-response","105","390091","0.0-10.0-1.36","https://mcdermottlab.mit.edu/mturk_stimuli/bjmedina/mem_exp_atexts_2025/sequences/isi_16/len120/seq055_len120_s15_isi-1p0_0p0_16p0.json","11.19","true","x2u1rnl6jry","","null","<span style=""font-size: 40px"">+</span>","null","","","","","","","","","",""
"","","","","","audio-button-response","106","393871","0.0-10.0-2.36","https://mcdermottlab.mit.edu/mturk_stimuli/bjmedina/mem_exp_atexts_2025/sequences/isi_16/len120/seq055_len120_s15_isi-1p0_0p0_16p0.json","11.19","true","x2u1rnl6jry","","3168","https://mcdermottlab.mit.edu/mturk_stimuli/bjmedina/mem_exp_atexts_2025/mem_stim_54.wav","2","main","","","false","mem_stim_54.wav","false","-1","","1","correct_rejection"
"","","","","","html-keyboard-response","107","393941","0.0-10.0-1.37","https://mcdermottlab.mit.edu/mturk_stimuli/bjmedina/mem_exp_atexts_2025/sequences/isi_16/len120/seq055_len120_s15_isi-1p0_0p0_16p0.json","11.19","true","x2u1rnl6jry","","null","<span style=""font-size: 40px"">+</span>","null","","","","","","","","","",""
"","","","","","audio-button-response","108","397741","0.0-10.0-2.37","https://mcdermottlab.mit.edu/mturk_stimuli/bjmedina/mem_exp_atexts_2025/sequences/isi_16/len120/seq055_len120_s15_isi-1p0_0p0_16p0.json","11.19","true","x2u1rnl6jry","","2491","https://mcdermottlab.mit.edu/mturk_stimuli/bjmedina/mem_exp_atexts_2025/mem_stim_2.wav","3","main","","","false","mem_stim_2.wav","false","-1","","1","correct_rejection"
"","","","","","html-keyboard-response","109","397803","0.0-10.0-1.38","https://mcdermottlab.mit.edu/mturk_stimuli/bjmedina/mem_exp_atexts_2025/sequences/isi_16/len120/seq055_len120_s15_isi-1p0_0p0_16p0.json","11.19","true","x2u1rnl6jry","","null","<span style=""font-size: 40px"">+</span>","null","","","","","","","","","",""
"","","","","","audio-button-response","110","400934","0.0-10.0-2.38","https://mcdermottlab.mit.edu/mturk_stimuli/bjmedina/mem_exp_atexts_2025/sequences/isi_16/len120/seq055_len120_s15_isi-1p0_0p0_16p0.json","11.19","true","x2u1rnl6jry","","2651","https://mcdermottlab.mit.edu/mturk_stimuli/bjmedina/mem_exp_atexts_2025/mem_stim_51.wav","3","main","","","false","mem_stim_51.wav","false","-1","","1","correct_rejection"
"","","","","","html-keyboard-response","111","401003","0.0-10.0-1.39","https://mcdermottlab.mit.edu/mturk_stimuli/bjmedina/mem_exp_atexts_2025/sequences/isi_16/len120/seq055_len120_s15_isi-1p0_0p0_16p0.json","11.19","true","x2u1rnl6jry","","null","<span style=""font-size: 40px"">+</span>","null","","","","","","","","","",""
"","","","","","audio-button-response","112","404345","0.0-10.0-2.39","https://mcdermottlab.mit.edu/mturk_stimuli/bjmedina/mem_exp_atexts_2025/sequences/isi_16/len120/seq055_len120_s15_isi-1p0_0p0_16p0.json","11.19","true","x2u1rnl6jry","","2720","https://mcdermottlab.mit.edu/mturk_stimuli/bjmedina/mem_exp_atexts_2025/mem_stim_62.wav","2","main","","","false","mem_stim_62.wav","false","-1","","1","correct_rejection"
"","","","","","html-keyboard-response","113","404422","0.0-10.0-1.40","https://mcdermottlab.mit.edu/mturk_stimuli/bjmedina/mem_exp_atexts_2025/sequences/isi_16/len120/seq055_len120_s15_isi-1p0_0p0_16p0.json","11.19","true","x2u1rnl6jry","","null","<span style=""font-size: 40px"">+</span>","null","","","","","","","","","",""
"","","","","","audio-button-response","114","407776","0.0-10.0-2.40","https://mcdermottlab.mit.edu/mturk_stimuli/bjmedina/mem_exp_atexts_2025/sequences/isi_16/len120/seq055_len120_s15_isi-1p0_0p0_16p0.json","11.19","true","x2u1rnl6jry","","2461","https://mcdermottlab.mit.edu/mturk_stimuli/bjmedina/mem_exp_atexts_2025/mem_stim_30.wav","0","main","","","false","mem_stim_30.wav","false","-1","","1","correct_rejection"
"","","","","","html-keyboard-response","115","407839","0.0-10.0-1.41","https://mcdermottlab.mit.edu/mturk_stimuli/bjmedina/mem_exp_atexts_2025/sequences/isi_16/len120/seq055_len120_s15_isi-1p0_0p0_16p0.json","11.19","true","x2u1rnl6jry","","null","<span style=""font-size: 40px"">+</span>","null","","","","","","","","","",""
"","","","","","audio-button-response","116","411268","0.0-10.0-2.41","https://mcdermottlab.mit.edu/mturk_stimuli/bjmedina/mem_exp_atexts_2025/sequences/isi_16/len120/seq055_len120_s15_isi-1p0_0p0_16p0.json","11.19","true","x2u1rnl6jry","","2880","https://mcdermottlab.mit.edu/mturk_stimuli/bjmedina/mem_exp_atexts_2025/mem_stim_73.wav","2","main","","","false","mem_stim_73.wav","false","-1","","1","correct_rejection"
"","","","","","html-keyboard-response","117","411339","0.0-10.0-1.42","https://mcdermottlab.mit.edu/mturk_stimuli/bjmedina/mem_exp_atexts_2025/sequences/isi_16/len120/seq055_len120_s15_isi-1p0_0p0_16p0.json","11.19","true","x2u1rnl6jry","","null","<span style=""font-size: 40px"">+</span>","null","","","","","","","","","",""
"","","","","","audio-button-response","118","415938","0.0-10.0-2.42","https://mcdermottlab.mit.edu/mturk_stimuli/bjmedina/mem_exp_atexts_2025/sequences/isi_16/len120/seq055_len120_s15_isi-1p0_0p0_16p0.json","11.19","true","x2u1rnl6jry","","2960","https://mcdermottlab.mit.edu/mturk_stimuli/bjmedina/mem_exp_atexts_2025/mem_stim_56.wav","0","main","","","false","mem_stim_56.wav","false","-1","","1","correct_rejection"
"","","","","","html-keyboard-response","119","415995","0.0-10.0-1.43","https://mcdermottlab.mit.edu/mturk_stimuli/bjmedina/mem_exp_atexts_2025/sequences/isi_16/len120/seq055_len120_s15_isi-1p0_0p0_16p0.json","11.19","true","x2u1rnl6jry","","null","<span style=""font-size: 40px"">+</span>","null","","","","","","","","","",""
"","","","","","audio-button-response","120","419549","0.0-10.0-2.43","https://mcdermottlab.mit.edu/mturk_stimuli/bjmedina/mem_exp_atexts_2025/sequences/isi_16/len120/seq055_len120_s15_isi-1p0_0p0_16p0.json","11.19","true","x2u1rnl6jry","","3149","https://mcdermottlab.mit.edu/mturk_stimuli/bjmedina/mem_exp_atexts_2025/mem_stim_6.wav","1","main","","","false","mem_stim_6.wav","false","-1","","0","false_alarm"
"","","","","","html-keyboard-response","121","419620","0.0-10.0-1.44","https://mcdermottlab.mit.edu/mturk_stimuli/bjmedina/mem_exp_atexts_2025/sequences/isi_16/len120/seq055_len120_s15_isi-1p0_0p0_16p0.json","11.19","true","x2u1rnl6jry","","null","<span style=""font-size: 40px"">+</span>","null","","","","","","","","","",""
"","","","","","audio-button-response","122","422972","0.0-10.0-2.44","https://mcdermottlab.mit.edu/mturk_stimuli/bjmedina/mem_exp_atexts_2025/sequences/isi_16/len120/seq055_len120_s15_isi-1p0_0p0_16p0.json","11.19","true","x2u1rnl6jry","","2629","https://mcdermottlab.mit.edu/mturk_stimuli/bjmedina/mem_exp_atexts_2025/mem_stim_22.wav","3","main","","","false","mem_stim_22.wav","false","-1","","1","correct_rejection"
"","","","","","html-keyboard-response","123","423033","0.0-10.0-1.45","https://mcdermottlab.mit.edu/mturk_stimuli/bjmedina/mem_exp_atexts_2025/sequences/isi_16/len120/seq055_len120_s15_isi-1p0_0p0_16p0.json","11.19","true","x2u1rnl6jry","","null","<span style=""font-size: 40px"">+</span>","null","","","","","","","","","",""
"","","","","","audio-button-response","124","425596","0.0-10.0-2.45","https://mcdermottlab.mit.edu/mturk_stimuli/bjmedina/mem_exp_atexts_2025/sequences/isi_16/len120/seq055_len120_s15_isi-1p0_0p0_16p0.json","11.19","true","x2u1rnl6jry","","2560","https://mcdermottlab.mit.edu/mturk_stimuli/bjmedina/mem_exp_atexts_2025/mem_stim_22.wav","3","main","","","true","mem_stim_22.wav","true","0","","0","miss"
"","","","","","html-keyboard-response","125","425671","0.0-10.0-1.46","https://mcdermottlab.mit.edu/mturk_stimuli/bjmedina/mem_exp_atexts_2025/sequences/isi_16/len120/seq055_len120_s15_isi-1p0_0p0_16p0.json","11.19","true","x2u1rnl6jry","","null","<span style=""font-size: 40px"">+</span>","null","","","","","","","","","",""
"","","","","","audio-button-response","126","428999","0.0-10.0-2.46","https://mcdermottlab.mit.edu/mturk_stimuli/bjmedina/mem_exp_atexts_2025/sequences/isi_16/len120/seq055_len120_s15_isi-1p0_0p0_16p0.json","11.19","true","x2u1rnl6jry","","2640","https://mcdermottlab.mit.edu/mturk_stimuli/bjmedina/mem_exp_atexts_2025/mem_stim_31.wav","2","main","","","false","mem_stim_31.wav","false","-1","","1","correct_rejection"
"","","","","","html-keyboard-response","127","429063","0.0-10.0-1.47","https://mcdermottlab.mit.edu/mturk_stimuli/bjmedina/mem_exp_atexts_2025/sequences/isi_16/len120/seq055_len120_s15_isi-1p0_0p0_16p0.json","11.19","true","x2u1rnl6jry","","null","<span style=""font-size: 40px"">+</span>","null","","","","","","","","","",""
"","","","","","audio-button-response","128","432260","0.0-10.0-2.47","https://mcdermottlab.mit.edu/mturk_stimuli/bjmedina/mem_exp_atexts_2025/sequences/isi_16/len120/seq055_len120_s15_isi-1p0_0p0_16p0.json","11.19","true","x2u1rnl6jry","","2600","https://mcdermottlab.mit.edu/mturk_stimuli/bjmedina/mem_exp_atexts_2025/mem_stim_77.wav","0","main","","","false","mem_stim_77.wav","false","-1","","1","correct_rejection"
"","","","","","html-keyboard-response","129","432317","0.0-10.0-1.48","https://mcdermottlab.mit.edu/mturk_stimuli/bjmedina/mem_exp_atexts_2025/sequences/isi_16/len120/seq055_len120_s15_isi-1p0_0p0_16p0.json","11.19","true","x2u1rnl6jry","","null","<span style=""font-size: 40px"">+</span>","null","","","","","","","","","",""
"","","","","","audio-button-response","130","435342","0.0-10.0-2.48","https://mcdermottlab.mit.edu/mturk_stimuli/bjmedina/mem_exp_atexts_2025/sequences/isi_16/len120/seq055_len120_s15_isi-1p0_0p0_16p0.json","11.19","true","x2u1rnl6jry","","2472","https://mcdermottlab.mit.edu/mturk_stimuli/bjmedina/mem_exp_atexts_2025/mem_stim_4.wav","3","main","","","false","mem_stim_4.wav","false","-1","","1","correct_rejection"
"","","","","","html-keyboard-response","131","435402","0.0-10.0-1.49","https://mcdermottlab.mit.edu/mturk_stimuli/bjmedina/mem_exp_atexts_2025/sequences/isi_16/len120/seq055_len120_s15_isi-1p0_0p0_16p0.json","11.19","true","x2u1rnl6jry","","null","<span style=""font-size: 40px"">+</span>","null","","","","","","","","","",""
"","","","","","audio-button-response","132","438106","0.0-10.0-2.49","https://mcdermottlab.mit.edu/mturk_stimuli/bjmedina/mem_exp_atexts_2025/sequences/isi_16/len120/seq055_len120_s15_isi-1p0_0p0_16p0.json","11.19","true","x2u1rnl6jry","","2088","https://mcdermottlab.mit.edu/mturk_stimuli/bjmedina/mem_exp_atexts_2025/mem_stim_10.wav","3","main","","","false","mem_stim_10.wav","false","-1","","1","correct_rejection"
"","","","","","html-keyboard-response","133","438167","0.0-10.0-1.50","https://mcdermottlab.mit.edu/mturk_stimuli/bjmedina/mem_exp_atexts_2025/sequences/isi_16/len120/seq055_len120_s15_isi-1p0_0p0_16p0.json","11.19","true","x2u1rnl6jry","","null","<span style=""font-size: 40px"">+</span>","null","","","","","","","","","",""
"","","","","","audio-button-response","134","440692","0.0-10.0-2.50","https://mcdermottlab.mit.edu/mturk_stimuli/bjmedina/mem_exp_atexts_2025/sequences/isi_16/len120/seq055_len120_s15_isi-1p0_0p0_16p0.json","11.19","true","x2u1rnl6jry","","2520","https://mcdermottlab.mit.edu/mturk_stimuli/bjmedina/mem_exp_atexts_2025/mem_stim_36.wav","3","main","","","true","mem_stim_36.wav","false","16","","0","miss"
"","","","","","html-keyboard-response","135","440767","0.0-10.0-1.51","https://mcdermottlab.mit.edu/mturk_stimuli/bjmedina/mem_exp_atexts_2025/sequences/isi_16/len120/seq055_len120_s15_isi-1p0_0p0_16p0.json","11.19","true","x2u1rnl6jry","","null","<span style=""font-size: 40px"">+</span>","null","","","","","","","","","",""
"","","","","","audio-button-response","136","443356","0.0-10.0-2.51","https://mcdermottlab.mit.edu/mturk_stimuli/bjmedina/mem_exp_atexts_2025/sequences/isi_16/len120/seq055_len120_s15_isi-1p0_0p0_16p0.json","11.19","true","x2u1rnl6jry","","2589","https://mcdermottlab.mit.edu/mturk_stimuli/bjmedina/mem_exp_atexts_2025/mem_stim_49.wav","3","main","","","true","mem_stim_49.wav","false","16","","0","miss"
"","","","","","html-keyboard-response","137","443415","0.0-10.0-1.52","https://mcdermottlab.mit.edu/mturk_stimuli/bjmedina/mem_exp_atexts_2025/sequences/isi_16/len120/seq055_len120_s15_isi-1p0_0p0_16p0.json","11.19","true","x2u1rnl6jry","","null","<span style=""font-size: 40px"">+</span>","null","","","","","","","","","",""
"","","","","","audio-button-response","138","445830","0.0-10.0-2.52","https://mcdermottlab.mit.edu/mturk_stimuli/bjmedina/mem_exp_atexts_2025/sequences/isi_16/len120/seq055_len120_s15_isi-1p0_0p0_16p0.json","11.19","true","x2u1rnl6jry","","2408","https://mcdermottlab.mit.edu/mturk_stimuli/bjmedina/mem_exp_atexts_2025/mem_stim_41.wav","3","main","","","true","mem_stim_41.wav","false","16","","0","miss"
"","","","","","html-keyboard-response","139","445900","0.0-10.0-1.53","https://mcdermottlab.mit.edu/mturk_stimuli/bjmedina/mem_exp_atexts_2025/sequences/isi_16/len120/seq055_len120_s15_isi-1p0_0p0_16p0.json","11.19","true","x2u1rnl6jry","","null","<span style=""font-size: 40px"">+</span>","null","","","","","","","","","",""
"","","","","","audio-button-response","140","448644","0.0-10.0-2.53","https://mcdermottlab.mit.edu/mturk_stimuli/bjmedina/mem_exp_atexts_2025/sequences/isi_16/len120/seq055_len120_s15_isi-1p0_0p0_16p0.json","11.19","true","x2u1rnl6jry","","2749","https://mcdermottlab.mit.edu/mturk_stimuli/bjmedina/mem_exp_atexts_2025/mem_stim_54.wav","1","main","","","true","mem_stim_54.wav","false","16","","1","hit"
"","","","","","html-keyboard-response","141","448700","0.0-10.0-1.54","https://mcdermottlab.mit.edu/mturk_stimuli/bjmedina/mem_exp_atexts_2025/sequences/isi_16/len120/seq055_len120_s15_isi-1p0_0p0_16p0.json","11.19","true","x2u1rnl6jry","","null","<span style=""font-size: 40px"">+</span>","null","","","","","","","","","",""
"","","","","","audio-button-response","142","452017","0.0-10.0-2.54","https://mcdermottlab.mit.edu/mturk_stimuli/bjmedina/mem_exp_atexts_2025/sequences/isi_16/len120/seq055_len120_s15_isi-1p0_0p0_16p0.json","11.19","true","x2u1rnl6jry","","2781","https://mcdermottlab.mit.edu/mturk_stimuli/bjmedina/mem_exp_atexts_2025/mem_stim_67.wav","2","main","","","false","mem_stim_67.wav","false","-1","","1","correct_rejection"
"","","","","","html-keyboard-response","143","452083","0.0-10.0-1.55","https://mcdermottlab.mit.edu/mturk_stimuli/bjmedina/mem_exp_atexts_2025/sequences/isi_16/len120/seq055_len120_s15_isi-1p0_0p0_16p0.json","11.19","true","x2u1rnl6jry","","null","<span style=""font-size: 40px"">+</span>","null","","","","","","","","","",""
"","","","","","audio-button-response","144","454571","0.0-10.0-2.55","https://mcdermottlab.mit.edu/mturk_stimuli/bjmedina/mem_exp_atexts_2025/sequences/isi_16/len120/seq055_len120_s15_isi-1p0_0p0_16p0.json","11.19","true","x2u1rnl6jry","","2491","https://mcdermottlab.mit.edu/mturk_stimuli/bjmedina/mem_exp_atexts_2025/mem_stim_51.wav","3","main","","","true","mem_stim_51.wav","false","16","","0","miss"
"","","","","","html-keyboard-response","145","454632","0.0-10.0-1.56","https://mcdermottlab.mit.edu/mturk_stimuli/bjmedina/mem_exp_atexts_2025/sequences/isi_16/len120/seq055_len120_s15_isi-1p0_0p0_16p0.json","11.19","true","x2u1rnl6jry","","null","<span style=""font-size: 40px"">+</span>","null","","","","","","","","","",""
"","","","","","audio-button-response","146","458183","0.0-10.0-2.56","https://mcdermottlab.mit.edu/mturk_stimuli/bjmedina/mem_exp_atexts_2025/sequences/isi_16/len120/seq055_len120_s15_isi-1p0_0p0_16p0.json","11.19","true","x2u1rnl6jry","","2960","https://mcdermottlab.mit.edu/mturk_stimuli/bjmedina/mem_exp_atexts_2025/mem_stim_68.wav","0","main","","","false","mem_stim_68.wav","false","-1","","1","correct_rejection"
"","","","","","html-keyboard-response","147","458249","0.0-10.0-1.57","https://mcdermottlab.mit.edu/mturk_stimuli/bjmedina/mem_exp_atexts_2025/sequences/isi_16/len120/seq055_len120_s15_isi-1p0_0p0_16p0.json","11.19","true","x2u1rnl6jry","","null","<span style=""font-size: 40px"">+</span>","null","","","","","","","","","",""
"","","","","","audio-button-response","148","461275","0.0-10.0-2.57","https://mcdermottlab.mit.edu/mturk_stimuli/bjmedina/mem_exp_atexts_2025/sequences/isi_16/len120/seq055_len120_s15_isi-1p0_0p0_16p0.json","11.19","true","x2u1rnl6jry","","3029","https://mcdermottlab.mit.edu/mturk_stimuli/bjmedina/mem_exp_atexts_2025/mem_stim_30.wav","0","main","","","true","mem_stim_30.wav","false","16","","0","miss"
"","","","","","html-keyboard-response","149","461343","0.0-10.0-1.58","https://mcdermottlab.mit.edu/mturk_stimuli/bjmedina/mem_exp_atexts_2025/sequences/isi_16/len120/seq055_len120_s15_isi-1p0_0p0_16p0.json","11.19","true","x2u1rnl6jry","","null","<span style=""font-size: 40px"">+</span>","null","","","","","","","","","",""
"","","","","","audio-button-response","150","464816","0.0-10.0-2.58","https://mcdermottlab.mit.edu/mturk_stimuli/bjmedina/mem_exp_atexts_2025/sequences/isi_16/len120/seq055_len120_s15_isi-1p0_0p0_16p0.json","11.19","true","x2u1rnl6jry","","2501","https://mcdermottlab.mit.edu/mturk_stimuli/bjmedina/mem_exp_atexts_2025/mem_stim_53.wav","3","main","","","false","mem_stim_53.wav","false","-1","","1","correct_rejection"
"","","","","","html-keyboard-response","151","464883","0.0-10.0-1.59","https://mcdermottlab.mit.edu/mturk_stimuli/bjmedina/mem_exp_atexts_2025/sequences/isi_16/len120/seq055_len120_s15_isi-1p0_0p0_16p0.json","11.19","true","x2u1rnl6jry","","null","<span style=""font-size: 40px"">+</span>","null","","","","","","","","","",""
"","","","","","audio-button-response","152","467681","0.0-10.0-2.59","https://mcdermottlab.mit.edu/mturk_stimuli/bjmedina/mem_exp_atexts_2025/sequences/isi_16/len120/seq055_len120_s15_isi-1p0_0p0_16p0.json","11.19","true","x2u1rnl6jry","","2789","https://mcdermottlab.mit.edu/mturk_stimuli/bjmedina/mem_exp_atexts_2025/mem_stim_56.wav","2","main","","","true","mem_stim_56.wav","false","16","","0","miss"
"","","","","","html-keyboard-response","153","467743","0.0-10.0-1.60","https://mcdermottlab.mit.edu/mturk_stimuli/bjmedina/mem_exp_atexts_2025/sequences/isi_16/len120/seq055_len120_s15_isi-1p0_0p0_16p0.json","11.19","true","x2u1rnl6jry","","null","<span style=""font-size: 40px"">+</span>","null","","","","","","","","","",""
"","","","","","audio-button-response","154","471489","0.0-10.0-2.60","https://mcdermottlab.mit.edu/mturk_stimuli/bjmedina/mem_exp_atexts_2025/sequences/isi_16/len120/seq055_len120_s15_isi-1p0_0p0_16p0.json","11.19","true","x2u1rnl6jry","","2469","https://mcdermottlab.mit.edu/mturk_stimuli/bjmedina/mem_exp_atexts_2025/mem_stim_5.wav","3","main","","","false","mem_stim_5.wav","false","-1","","1","correct_rejection"
"","","","","","html-keyboard-response","155","471562","0.0-10.0-1.61","https://mcdermottlab.mit.edu/mturk_stimuli/bjmedina/mem_exp_atexts_2025/sequences/isi_16/len120/seq055_len120_s15_isi-1p0_0p0_16p0.json","11.19","true","x2u1rnl6jry","","null","<span style=""font-size: 40px"">+</span>","null","","","","","","","","","",""
"","","","","","audio-button-response","156","475100","0.0-10.0-2.61","https://mcdermottlab.mit.edu/mturk_stimuli/bjmedina/mem_exp_atexts_2025/sequences/isi_16/len120/seq055_len120_s15_isi-1p0_0p0_16p0.json","11.19","true","x2u1rnl6jry","","2851","https://mcdermottlab.mit.edu/mturk_stimuli/bjmedina/mem_exp_atexts_2025/mem_stim_18.wav","2","main","","","false","mem_stim_18.wav","false","-1","","1","correct_rejection"
"","","","","","html-keyboard-response","157","475162","0.0-10.0-1.62","https://mcdermottlab.mit.edu/mturk_stimuli/bjmedina/mem_exp_atexts_2025/sequences/isi_16/len120/seq055_len120_s15_isi-1p0_0p0_16p0.json","11.19","true","x2u1rnl6jry","","null","<span style=""font-size: 40px"">+</span>","null","","","","","","","","","",""
"","","","","","audio-button-response","158","478493","0.0-10.0-2.62","https://mcdermottlab.mit.edu/mturk_stimuli/bjmedina/mem_exp_atexts_2025/sequences/isi_16/len120/seq055_len120_s15_isi-1p0_0p0_16p0.json","11.19","true","x2u1rnl6jry","","2880","https://mcdermottlab.mit.edu/mturk_stimuli/bjmedina/mem_exp_atexts_2025/mem_stim_9.wav","1","main","","","false","mem_stim_9.wav","false","-1","","0","false_alarm"
"","","","","","html-keyboard-response","159","478563","0.0-10.0-1.63","https://mcdermottlab.mit.edu/mturk_stimuli/bjmedina/mem_exp_atexts_2025/sequences/isi_16/len120/seq055_len120_s15_isi-1p0_0p0_16p0.json","11.19","true","x2u1rnl6jry","","null","<span style=""font-size: 40px"">+</span>","null","","","","","","","","","",""
"","","","","","audio-button-response","160","481146","0.0-10.0-2.63","https://mcdermottlab.mit.edu/mturk_stimuli/bjmedina/mem_exp_atexts_2025/sequences/isi_16/len120/seq055_len120_s15_isi-1p0_0p0_16p0.json","11.19","true","x2u1rnl6jry","","2579","https://mcdermottlab.mit.edu/mturk_stimuli/bjmedina/mem_exp_atexts_2025/mem_stim_31.wav","3","main","","","true","mem_stim_31.wav","false","16","","0","miss"
"","","","","","html-keyboard-response","161","481212","0.0-10.0-1.64","https://mcdermottlab.mit.edu/mturk_stimuli/bjmedina/mem_exp_atexts_2025/sequences/isi_16/len120/seq055_len120_s15_isi-1p0_0p0_16p0.json","11.19","true","x2u1rnl6jry","","null","<span style=""font-size: 40px"">+</span>","null","","","","","","","","","",""
"","","","","","audio-button-response","162","484378","0.0-10.0-2.64","https://mcdermottlab.mit.edu/mturk_stimuli/bjmedina/mem_exp_atexts_2025/sequences/isi_16/len120/seq055_len120_s15_isi-1p0_0p0_16p0.json","11.19","true","x2u1rnl6jry","","2472","https://mcdermottlab.mit.edu/mturk_stimuli/bjmedina/mem_exp_atexts_2025/mem_stim_39.wav","3","main","","","false","mem_stim_39.wav","false","-1","","1","correct_rejection"
"","","","","","html-keyboard-response","163","484443","0.0-10.0-1.65","https://mcdermottlab.mit.edu/mturk_stimuli/bjmedina/mem_exp_atexts_2025/sequences/isi_16/len120/seq055_len120_s15_isi-1p0_0p0_16p0.json","11.19","true","x2u1rnl6jry","","null","<span style=""font-size: 40px"">+</span>","null","","","","","","","","","",""
"","","","","","audio-button-response","164","487570","0.0-10.0-2.65","https://mcdermottlab.mit.edu/mturk_stimuli/bjmedina/mem_exp_atexts_2025/sequences/isi_16/len120/seq055_len120_s15_isi-1p0_0p0_16p0.json","11.19","true","x2u1rnl6jry","","2491","https://mcdermottlab.mit.edu/mturk_stimuli/bjmedina/mem_exp_atexts_2025/mem_stim_59.wav","3","main","","","false","mem_stim_59.wav","false","-1","","1","correct_rejection"
"","","","","","html-keyboard-response","165","487642","0.0-10.0-1.66","https://mcdermottlab.mit.edu/mturk_stimuli/bjmedina/mem_exp_atexts_2025/sequences/isi_16/len120/seq055_len120_s15_isi-1p0_0p0_16p0.json","11.19","true","x2u1rnl6jry","","null","<span style=""font-size: 40px"">+</span>","null","","","","","","","","","",""
"","","","","","audio-button-response","166","490801","0.0-10.0-2.66","https://mcdermottlab.mit.edu/mturk_stimuli/bjmedina/mem_exp_atexts_2025/sequences/isi_16/len120/seq055_len120_s15_isi-1p0_0p0_16p0.json","11.19","true","x2u1rnl6jry","","2531","https://mcdermottlab.mit.edu/mturk_stimuli/bjmedina/mem_exp_atexts_2025/mem_stim_48.wav","2","main","","","false","mem_stim_48.wav","false","-1","","1","correct_rejection"
"","","","","","html-keyboard-response","167","490860","0.0-10.0-1.67","https://mcdermottlab.mit.edu/mturk_stimuli/bjmedina/mem_exp_atexts_2025/sequences/isi_16/len120/seq055_len120_s15_isi-1p0_0p0_16p0.json","11.19","true","x2u1rnl6jry","","null","<span style=""font-size: 40px"">+</span>","null","","","","","","","","","",""
"","","","","","audio-button-response","168","494841","0.0-10.0-2.67","https://mcdermottlab.mit.edu/mturk_stimuli/bjmedina/mem_exp_atexts_2025/sequences/isi_16/len120/seq055_len120_s15_isi-1p0_0p0_16p0.json","11.19","true","x2u1rnl6jry","","2459","https://mcdermottlab.mit.edu/mturk_stimuli/bjmedina/mem_exp_atexts_2025/mem_stim_46.wav","3","main","","","false","mem_stim_46.wav","false","-1","","1","correct_rejection"
"","","","","","html-keyboard-response","169","494902","0.0-10.0-1.68","https://mcdermottlab.mit.edu/mturk_stimuli/bjmedina/mem_exp_atexts_2025/sequences/isi_16/len120/seq055_len120_s15_isi-1p0_0p0_16p0.json","11.19","true","x2u1rnl6jry","","null","<span style=""font-size: 40px"">+</span>","null","","","","","","","","","",""
"","","","","","audio-button-response","170","497965","0.0-10.0-2.68","https://mcdermottlab.mit.edu/mturk_stimuli/bjmedina/mem_exp_atexts_2025/sequences/isi_16/len120/seq055_len120_s15_isi-1p0_0p0_16p0.json","11.19","true","x2u1rnl6jry","","2501","https://mcdermottlab.mit.edu/mturk_stimuli/bjmedina/mem_exp_atexts_2025/mem_stim_47.wav","3","main","","","false","mem_stim_47.wav","false","-1","","1","correct_rejection"
"","","","","","html-keyboard-response","171","498042","0.0-10.0-1.69","https://mcdermottlab.mit.edu/mturk_stimuli/bjmedina/mem_exp_atexts_2025/sequences/isi_16/len120/seq055_len120_s15_isi-1p0_0p0_16p0.json","11.19","true","x2u1rnl6jry","","null","<span style=""font-size: 40px"">+</span>","null","","","","","","","","","",""
"","","","","","audio-button-response","172","501926","0.0-10.0-2.69","https://mcdermottlab.mit.edu/mturk_stimuli/bjmedina/mem_exp_atexts_2025/sequences/isi_16/len120/seq055_len120_s15_isi-1p0_0p0_16p0.json","11.19","true","x2u1rnl6jry","","2731","https://mcdermottlab.mit.edu/mturk_stimuli/bjmedina/mem_exp_atexts_2025/mem_stim_50.wav","2","main","","","false","mem_stim_50.wav","false","-1","","1","correct_rejection"
"","","","","","html-keyboard-response","173","501991","0.0-10.0-1.70","https://mcdermottlab.mit.edu/mturk_stimuli/bjmedina/mem_exp_atexts_2025/sequences/isi_16/len120/seq055_len120_s15_isi-1p0_0p0_16p0.json","11.19","true","x2u1rnl6jry","","null","<span style=""font-size: 40px"">+</span>","null","","","","","","","","","",""
"","","","","","audio-button-response","174","505248","0.0-10.0-2.70","https://mcdermottlab.mit.edu/mturk_stimuli/bjmedina/mem_exp_atexts_2025/sequences/isi_16/len120/seq055_len120_s15_isi-1p0_0p0_16p0.json","11.19","true","x2u1rnl6jry","","2589","https://mcdermottlab.mit.edu/mturk_stimuli/bjmedina/mem_exp_atexts_2025/mem_stim_37.wav","0","main","","","false","mem_stim_37.wav","false","-1","","1","correct_rejection"
"","","","","","html-keyboard-response","175","505310","0.0-10.0-1.71","https://mcdermottlab.mit.edu/mturk_stimuli/bjmedina/mem_exp_atexts_2025/sequences/isi_16/len120/seq055_len120_s15_isi-1p0_0p0_16p0.json","11.19","true","x2u1rnl6jry","","null","<span style=""font-size: 40px"">+</span>","null","","","","","","","","","",""
"","","","","","audio-button-response","176","508480","0.0-10.0-2.71","https://mcdermottlab.mit.edu/mturk_stimuli/bjmedina/mem_exp_atexts_2025/sequences/isi_16/len120/seq055_len120_s15_isi-1p0_0p0_16p0.json","11.19","true","x2u1rnl6jry","","2611","https://mcdermottlab.mit.edu/mturk_stimuli/bjmedina/mem_exp_atexts_2025/mem_stim_1.wav","2","main","","","false","mem_stim_1.wav","false","-1","","1","correct_rejection"
"","","","","","html-keyboard-response","177","508542","0.0-10.0-1.72","https://mcdermottlab.mit.edu/mturk_stimuli/bjmedina/mem_exp_atexts_2025/sequences/isi_16/len120/seq055_len120_s15_isi-1p0_0p0_16p0.json","11.19","true","x2u1rnl6jry","","null","<span style=""font-size: 40px"">+</span>","null","","","","","","","","","",""
"","","","","","audio-button-response","178","511633","0.0-10.0-2.72","https://mcdermottlab.mit.edu/mturk_stimuli/bjmedina/mem_exp_atexts_2025/sequences/isi_16/len120/seq055_len120_s15_isi-1p0_0p0_16p0.json","11.19","true","x2u1rnl6jry","","2448","https://mcdermottlab.mit.edu/mturk_stimuli/bjmedina/mem_exp_atexts_2025/mem_stim_32.wav","3","main","","","false","mem_stim_32.wav","false","-1","","1","correct_rejection"
"","","","","","html-keyboard-response","179","511708","0.0-10.0-1.73","https://mcdermottlab.mit.edu/mturk_stimuli/bjmedina/mem_exp_atexts_2025/sequences/isi_16/len120/seq055_len120_s15_isi-1p0_0p0_16p0.json","11.19","true","x2u1rnl6jry","","null","<span style=""font-size: 40px"">+</span>","null","","","","","","","","","",""
"","","","","","audio-button-response","180","515504","0.0-10.0-2.73","https://mcdermottlab.mit.edu/mturk_stimuli/bjmedina/mem_exp_atexts_2025/sequences/isi_16/len120/seq055_len120_s15_isi-1p0_0p0_16p0.json","11.19","true","x2u1rnl6jry","","3109","https://mcdermottlab.mit.edu/mturk_stimuli/bjmedina/mem_exp_atexts_2025/mem_stim_79.wav","1","main","","","false","mem_stim_79.wav","false","-1","","0","false_alarm"
"","","","","","html-keyboard-response","181","515573","0.0-10.0-1.74","https://mcdermottlab.mit.edu/mturk_stimuli/bjmedina/mem_exp_atexts_2025/sequences/isi_16/len120/seq055_len120_s15_isi-1p0_0p0_16p0.json","11.19","true","x2u1rnl6jry","","null","<span style=""font-size: 40px"">+</span>","null","","","","","","","","","",""
"","","","","","audio-button-response","182","519484","0.0-10.0-2.74","https://mcdermottlab.mit.edu/mturk_stimuli/bjmedina/mem_exp_atexts_2025/sequences/isi_16/len120/seq055_len120_s15_isi-1p0_0p0_16p0.json","11.19","true","x2u1rnl6jry","","2480","https://mcdermottlab.mit.edu/mturk_stimuli/bjmedina/mem_exp_atexts_2025/mem_stim_44.wav","3","main","","","false","mem_stim_44.wav","false","-1","","1","correct_rejection"
"","","","","","html-keyboard-response","183","519558","0.0-10.0-1.75","https://mcdermottlab.mit.edu/mturk_stimuli/bjmedina/mem_exp_atexts_2025/sequences/isi_16/len120/seq055_len120_s15_isi-1p0_0p0_16p0.json","11.19","true","x2u1rnl6jry","","null","<span style=""font-size: 40px"">+</span>","null","","","","","","","","","",""
"","","","","","audio-button-response","184","522049","0.0-10.0-2.75","https://mcdermottlab.mit.edu/mturk_stimuli/bjmedina/mem_exp_atexts_2025/sequences/isi_16/len120/seq055_len120_s15_isi-1p0_0p0_16p0.json","11.19","true","x2u1rnl6jry","","2491","https://mcdermottlab.mit.edu/mturk_stimuli/bjmedina/mem_exp_atexts_2025/mem_stim_53.wav","3","main","","","true","mem_stim_53.wav","false","16","","0","miss"
"","","","","","html-keyboard-response","185","522122","0.0-10.0-1.76","https://mcdermottlab.mit.edu/mturk_stimuli/bjmedina/mem_exp_atexts_2025/sequences/isi_16/len120/seq055_len120_s15_isi-1p0_0p0_16p0.json","11.19","true","x2u1rnl6jry","","null","<span style=""font-size: 40px"">+</span>","null","","","","","","","","","",""
"","","","","","audio-button-response","186","525969","0.0-10.0-2.76","https://mcdermottlab.mit.edu/mturk_stimuli/bjmedina/mem_exp_atexts_2025/sequences/isi_16/len120/seq055_len120_s15_isi-1p0_0p0_16p0.json","11.19","true","x2u1rnl6jry","","2811","https://mcdermottlab.mit.edu/mturk_stimuli/bjmedina/mem_exp_atexts_2025/mem_stim_28.wav","2","main","","","false","mem_stim_28.wav","false","-1","","1","correct_rejection"
"","","","","","html-keyboard-response","187","526033","0.0-10.0-1.77","https://mcdermottlab.mit.edu/mturk_stimuli/bjmedina/mem_exp_atexts_2025/sequences/isi_16/len120/seq055_len120_s15_isi-1p0_0p0_16p0.json","11.19","true","x2u1rnl6jry","","null","<span style=""font-size: 40px"">+</span>","null","","","","","","","","","",""
"","","","","","audio-button-response","188","528534","0.0-10.0-2.77","https://mcdermottlab.mit.edu/mturk_stimuli/bjmedina/mem_exp_atexts_2025/sequences/isi_16/len120/seq055_len120_s15_isi-1p0_0p0_16p0.json","11.19","true","x2u1rnl6jry","","2501","https://mcdermottlab.mit.edu/mturk_stimuli/bjmedina/mem_exp_atexts_2025/mem_stim_28.wav","3","main","","","true","mem_stim_28.wav","true","0","","0","miss"
"","","","","","html-keyboard-response","189","528602","0.0-10.0-1.78","https://mcdermottlab.mit.edu/mturk_stimuli/bjmedina/mem_exp_atexts_2025/sequences/isi_16/len120/seq055_len120_s15_isi-1p0_0p0_16p0.json","11.19","true","x2u1rnl6jry","","null","<span style=""font-size: 40px"">+</span>","null","","","","","","","","","",""
"","","","","","audio-button-response","190","531666","0.0-10.0-2.78","https://mcdermottlab.mit.edu/mturk_stimuli/bjmedina/mem_exp_atexts_2025/sequences/isi_16/len120/seq055_len120_s15_isi-1p0_0p0_16p0.json","11.19","true","x2u1rnl6jry","","2459","https://mcdermottlab.mit.edu/mturk_stimuli/bjmedina/mem_exp_atexts_2025/mem_stim_7.wav","0","main","","","false","mem_stim_7.wav","false","-1","","1","correct_rejection"
"","","","","","html-keyboard-response","191","531739","0.0-10.0-1.79","https://mcdermottlab.mit.edu/mturk_stimuli/bjmedina/mem_exp_atexts_2025/sequences/isi_16/len120/seq055_len120_s15_isi-1p0_0p0_16p0.json","11.19","true","x2u1rnl6jry","","null","<span style=""font-size: 40px"">+</span>","null","","","","","","","","","",""
"","","","","","audio-button-response","192","534968","0.0-10.0-2.79","https://mcdermottlab.mit.edu/mturk_stimuli/bjmedina/mem_exp_atexts_2025/sequences/isi_16/len120/seq055_len120_s15_isi-1p0_0p0_16p0.json","11.19","true","x2u1rnl6jry","","2501","https://mcdermottlab.mit.edu/mturk_stimuli/bjmedina/mem_exp_atexts_2025/mem_stim_42.wav","3","main","","","false","mem_stim_42.wav","false","-1","","1","correct_rejection"
"","","","","","html-keyboard-response","193","535032","0.0-10.0-1.80","https://mcdermottlab.mit.edu/mturk_stimuli/bjmedina/mem_exp_atexts_2025/sequences/isi_16/len120/seq055_len120_s15_isi-1p0_0p0_16p0.json","11.19","true","x2u1rnl6jry","","null","<span style=""font-size: 40px"">+</span>","null","","","","","","","","","",""
"","","","","","audio-button-response","194","538310","0.0-10.0-2.80","https://mcdermottlab.mit.edu/mturk_stimuli/bjmedina/mem_exp_atexts_2025/sequences/isi_16/len120/seq055_len120_s15_isi-1p0_0p0_16p0.json","11.19","true","x2u1rnl6jry","","2699","https://mcdermottlab.mit.edu/mturk_stimuli/bjmedina/mem_exp_atexts_2025/mem_stim_70.wav","1","main","","","false","mem_stim_70.wav","false","-1","","0","false_alarm"
"","","","","","html-keyboard-response","195","538370","0.0-10.0-1.81","https://mcdermottlab.mit.edu/mturk_stimuli/bjmedina/mem_exp_atexts_2025/sequences/isi_16/len120/seq055_len120_s15_isi-1p0_0p0_16p0.json","11.19","true","x2u1rnl6jry","","null","<span style=""font-size: 40px"">+</span>","null","","","","","","","","","",""
"","","","","","audio-button-response","196","540953","0.0-10.0-2.81","https://mcdermottlab.mit.edu/mturk_stimuli/bjmedina/mem_exp_atexts_2025/sequences/isi_16/len120/seq055_len120_s15_isi-1p0_0p0_16p0.json","11.19","true","x2u1rnl6jry","","2579","https://mcdermottlab.mit.edu/mturk_stimuli/bjmedina/mem_exp_atexts_2025/mem_stim_39.wav","3","main","","","true","mem_stim_39.wav","false","16","","0","miss"
"","","","","","html-keyboard-response","197","541010","0.0-10.0-1.82","https://mcdermottlab.mit.edu/mturk_stimuli/bjmedina/mem_exp_atexts_2025/sequences/isi_16/len120/seq055_len120_s15_isi-1p0_0p0_16p0.json","11.19","true","x2u1rnl6jry","","null","<span style=""font-size: 40px"">+</span>","null","","","","","","","","","",""
"","","","","","audio-button-response","198","544774","0.0-10.0-2.82","https://mcdermottlab.mit.edu/mturk_stimuli/bjmedina/mem_exp_atexts_2025/sequences/isi_16/len120/seq055_len120_s15_isi-1p0_0p0_16p0.json","11.19","true","x2u1rnl6jry","","3771","https://mcdermottlab.mit.edu/mturk_stimuli/bjmedina/mem_exp_atexts_2025/mem_stim_59.wav","2","main","","","true","mem_stim_59.wav","false","16","","0","miss"
"","","","","","html-keyboard-response","199","544833","0.0-10.0-1.83","https://mcdermottlab.mit.edu/mturk_stimuli/bjmedina/mem_exp_atexts_2025/sequences/isi_16/len120/seq055_len120_s15_isi-1p0_0p0_16p0.json","11.19","true","x2u1rnl6jry","","null","<span style=""font-size: 40px"">+</span>","null","","","","","","","","","",""
"","","","","","audio-button-response","200","547387","0.0-10.0-2.83","https://mcdermottlab.mit.edu/mturk_stimuli/bjmedina/mem_exp_atexts_2025/sequences/isi_16/len120/seq055_len120_s15_isi-1p0_0p0_16p0.json","11.19","true","x2u1rnl6jry","","2549","https://mcdermottlab.mit.edu/mturk_stimuli/bjmedina/mem_exp_atexts_2025/mem_stim_48.wav","3","main","","","true","mem_stim_48.wav","false","16","","0","miss"
"","","","","","html-keyboard-response","201","547453","0.0-10.0-1.84","https://mcdermottlab.mit.edu/mturk_stimuli/bjmedina/mem_exp_atexts_2025/sequences/isi_16/len120/seq055_len120_s15_isi-1p0_0p0_16p0.json","11.19","true","x2u1rnl6jry","","null","<span style=""font-size: 40px"">+</span>","null","","","","","","","","","",""
"","","","","","audio-button-response","202","550021","0.0-10.0-2.84","https://mcdermottlab.mit.edu/mturk_stimuli/bjmedina/mem_exp_atexts_2025/sequences/isi_16/len120/seq055_len120_s15_isi-1p0_0p0_16p0.json","11.19","true","x2u1rnl6jry","","2560","https://mcdermottlab.mit.edu/mturk_stimuli/bjmedina/mem_exp_atexts_2025/mem_stim_46.wav","3","main","","","true","mem_stim_46.wav","false","16","","0","miss"
"","","","","","html-keyboard-response","203","550081","0.0-10.0-1.85","https://mcdermottlab.mit.edu/mturk_stimuli/bjmedina/mem_exp_atexts_2025/sequences/isi_16/len120/seq055_len120_s15_isi-1p0_0p0_16p0.json","11.19","true","x2u1rnl6jry","","null","<span style=""font-size: 40px"">+</span>","null","","","","","","","","","",""
"","","","","","audio-button-response","204","552615","0.0-10.0-2.85","https://mcdermottlab.mit.edu/mturk_stimuli/bjmedina/mem_exp_atexts_2025/sequences/isi_16/len120/seq055_len120_s15_isi-1p0_0p0_16p0.json","11.19","true","x2u1rnl6jry","","2541","https://mcdermottlab.mit.edu/mturk_stimuli/bjmedina/mem_exp_atexts_2025/mem_stim_47.wav","3","main","","","true","mem_stim_47.wav","false","16","","0","miss"
"","","","","","html-keyboard-response","205","552687","0.0-10.0-1.86","https://mcdermottlab.mit.edu/mturk_stimuli/bjmedina/mem_exp_atexts_2025/sequences/isi_16/len120/seq055_len120_s15_isi-1p0_0p0_16p0.json","11.19","true","x2u1rnl6jry","","null","<span style=""font-size: 40px"">+</span>","null","","","","","","","","","",""
"","","","","","audio-button-response","206","555249","0.0-10.0-2.86","https://mcdermottlab.mit.edu/mturk_stimuli/bjmedina/mem_exp_atexts_2025/sequences/isi_16/len120/seq055_len120_s15_isi-1p0_0p0_16p0.json","11.19","true","x2u1rnl6jry","","2560","https://mcdermottlab.mit.edu/mturk_stimuli/bjmedina/mem_exp_atexts_2025/mem_stim_50.wav","3","main","","","true","mem_stim_50.wav","false","16","","0","miss"
"","","","","","html-keyboard-response","207","555320","0.0-10.0-1.87","https://mcdermottlab.mit.edu/mturk_stimuli/bjmedina/mem_exp_atexts_2025/sequences/isi_16/len120/seq055_len120_s15_isi-1p0_0p0_16p0.json","11.19","true","x2u1rnl6jry","","null","<span style=""font-size: 40px"">+</span>","null","","","","","","","","","",""
"","","","","","audio-button-response","208","557833","0.0-10.0-2.87","https://mcdermottlab.mit.edu/mturk_stimuli/bjmedina/mem_exp_atexts_2025/sequences/isi_16/len120/seq055_len120_s15_isi-1p0_0p0_16p0.json","11.19","true","x2u1rnl6jry","","2509","https://mcdermottlab.mit.edu/mturk_stimuli/bjmedina/mem_exp_atexts_2025/mem_stim_37.wav","0","main","","","true","mem_stim_37.wav","false","16","","0","miss"
"","","","","","html-keyboard-response","209","557903","0.0-10.0-1.88","https://mcdermottlab.mit.edu/mturk_stimuli/bjmedina/mem_exp_atexts_2025/sequences/isi_16/len120/seq055_len120_s15_isi-1p0_0p0_16p0.json","11.19","true","x2u1rnl6jry","","null","<span style=""font-size: 40px"">+</span>","null","","","","","","","","","",""
"","","","","","audio-button-response","210","561504","0.0-10.0-2.88","https://mcdermottlab.mit.edu/mturk_stimuli/bjmedina/mem_exp_atexts_2025/sequences/isi_16/len120/seq055_len120_s15_isi-1p0_0p0_16p0.json","11.19","true","x2u1rnl6jry","","2560","https://mcdermottlab.mit.edu/mturk_stimuli/bjmedina/mem_exp_atexts_2025/mem_stim_43.wav","3","main","","","false","mem_stim_43.wav","false","-1","","1","correct_rejection"
"","","","","","html-keyboard-response","211","561569","0.0-10.0-1.89","https://mcdermottlab.mit.edu/mturk_stimuli/bjmedina/mem_exp_atexts_2025/sequences/isi_16/len120/seq055_len120_s15_isi-1p0_0p0_16p0.json","11.19","true","x2u1rnl6jry","","null","<span style=""font-size: 40px"">+</span>","null","","","","","","","","","",""
"","","","","","audio-button-response","212","564886","0.0-10.0-2.89","https://mcdermottlab.mit.edu/mturk_stimuli/bjmedina/mem_exp_atexts_2025/sequences/isi_16/len120/seq055_len120_s15_isi-1p0_0p0_16p0.json","11.19","true","x2u1rnl6jry","","3320","https://mcdermottlab.mit.edu/mturk_stimuli/bjmedina/mem_exp_atexts_2025/mem_stim_32.wav","3","main","","","true","mem_stim_32.wav","false","16","","0","miss"
"","","","","","html-keyboard-response","213","564951","0.0-10.0-1.90","https://mcdermottlab.mit.edu/mturk_stimuli/bjmedina/mem_exp_atexts_2025/sequences/isi_16/len120/seq055_len120_s15_isi-1p0_0p0_16p0.json","11.19","true","x2u1rnl6jry","","null","<span style=""font-size: 40px"">+</span>","null","","","","","","","","","",""
"","","","","","audio-button-response","214","568108","0.0-10.0-2.90","https://mcdermottlab.mit.edu/mturk_stimuli/bjmedina/mem_exp_atexts_2025/sequences/isi_16/len120/seq055_len120_s15_isi-1p0_0p0_16p0.json","11.19","true","x2u1rnl6jry","","2408","https://mcdermottlab.mit.edu/mturk_stimuli/bjmedina/mem_exp_atexts_2025/mem_stim_12.wav","2","main","","","false","mem_stim_12.wav","false","-1","","1","correct_rejection"
"","","","","","html-keyboard-response","215","568166","0.0-10.0-1.91","https://mcdermottlab.mit.edu/mturk_stimuli/bjmedina/mem_exp_atexts_2025/sequences/isi_16/len120/seq055_len120_s15_isi-1p0_0p0_16p0.json","11.19","true","x2u1rnl6jry","","null","<span style=""font-size: 40px"">+</span>","null","","","","","","","","","",""
"","","","","","audio-button-response","216","570621","0.0-10.0-2.91","https://mcdermottlab.mit.edu/mturk_stimuli/bjmedina/mem_exp_atexts_2025/sequences/isi_16/len120/seq055_len120_s15_isi-1p0_0p0_16p0.json","11.19","true","x2u1rnl6jry","","2451","https://mcdermottlab.mit.edu/mturk_stimuli/bjmedina/mem_exp_atexts_2025/mem_stim_44.wav","3","main","","","true","mem_stim_44.wav","false","16","","0","miss"
"","","","","","html-keyboard-response","217","570682","0.0-10.0-1.92","https://mcdermottlab.mit.edu/mturk_stimuli/bjmedina/mem_exp_atexts_2025/sequences/isi_16/len120/seq055_len120_s15_isi-1p0_0p0_16p0.json","11.19","true","x2u1rnl6jry","","null","<span style=""font-size: 40px"">+</span>","null","","","","","","","","","",""
"","","","","","audio-button-response","218","573852","0.0-10.0-2.92","https://mcdermottlab.mit.edu/mturk_stimuli/bjmedina/mem_exp_atexts_2025/sequences/isi_16/len120/seq055_len120_s15_isi-1p0_0p0_16p0.json","11.19","true","x2u1rnl6jry","","2491","https://mcdermottlab.mit.edu/mturk_stimuli/bjmedina/mem_exp_atexts_2025/mem_stim_13.wav","3","main","","","false","mem_stim_13.wav","false","-1","","1","correct_rejection"
"","","","","","html-keyboard-response","219","573912","0.0-10.0-1.93","https://mcdermottlab.mit.edu/mturk_stimuli/bjmedina/mem_exp_atexts_2025/sequences/isi_16/len120/seq055_len120_s15_isi-1p0_0p0_16p0.json","11.19","true","x2u1rnl6jry","","null","<span style=""font-size: 40px"">+</span>","null","","","","","","","","","",""
"","","","","","audio-button-response","220","577923","0.0-10.0-2.93","https://mcdermottlab.mit.edu/mturk_stimuli/bjmedina/mem_exp_atexts_2025/sequences/isi_16/len120/seq055_len120_s15_isi-1p0_0p0_16p0.json","11.19","true","x2u1rnl6jry","","2499","https://mcdermottlab.mit.edu/mturk_stimuli/bjmedina/mem_exp_atexts_2025/mem_stim_57.wav","3","main","","","false","mem_stim_57.wav","false","-1","","1","correct_rejection"
"","","","","","html-keyboard-response","221","577982","0.0-10.0-1.94","https://mcdermottlab.mit.edu/mturk_stimuli/bjmedina/mem_exp_atexts_2025/sequences/isi_16/len120/seq055_len120_s15_isi-1p0_0p0_16p0.json","11.19","true","x2u1rnl6jry","","null","<span style=""font-size: 40px"">+</span>","null","","","","","","","","","",""
"","","","","","audio-button-response","222","581463","0.0-10.0-2.94","https://mcdermottlab.mit.edu/mturk_stimuli/bjmedina/mem_exp_atexts_2025/sequences/isi_16/len120/seq055_len120_s15_isi-1p0_0p0_16p0.json","11.19","true","x2u1rnl6jry","","2811","https://mcdermottlab.mit.edu/mturk_stimuli/bjmedina/mem_exp_atexts_2025/mem_stim_33.wav","0","main","","","false","mem_stim_33.wav","false","-1","","1","correct_rejection"
"","","","","","html-keyboard-response","223","581532","0.0-10.0-1.95","https://mcdermottlab.mit.edu/mturk_stimuli/bjmedina/mem_exp_atexts_2025/sequences/isi_16/len120/seq055_len120_s15_isi-1p0_0p0_16p0.json","11.19","true","x2u1rnl6jry","","null","<span style=""font-size: 40px"">+</span>","null","","","","","","","","","",""
"","","","","","audio-button-response","224","585155","0.0-10.0-2.95","https://mcdermottlab.mit.edu/mturk_stimuli/bjmedina/mem_exp_atexts_2025/sequences/isi_16/len120/seq055_len120_s15_isi-1p0_0p0_16p0.json","11.19","true","x2u1rnl6jry","","2691","https://mcdermottlab.mit.edu/mturk_stimuli/bjmedina/mem_exp_atexts_2025/mem_stim_34.wav","3","main","","","false","mem_stim_34.wav","false","-1","","1","correct_rejection"
"","","","","","html-keyboard-response","225","585232","0.0-10.0-1.96","https://mcdermottlab.mit.edu/mturk_stimuli/bjmedina/mem_exp_atexts_2025/sequences/isi_16/len120/seq055_len120_s15_isi-1p0_0p0_16p0.json","11.19","true","x2u1rnl6jry","","null","<span style=""font-size: 40px"">+</span>","null","","","","","","","","","",""
"","","","","","audio-button-response","226","587669","0.0-10.0-2.96","https://mcdermottlab.mit.edu/mturk_stimuli/bjmedina/mem_exp_atexts_2025/sequences/isi_16/len120/seq055_len120_s15_isi-1p0_0p0_16p0.json","11.19","true","x2u1rnl6jry","","2440","https://mcdermottlab.mit.edu/mturk_stimuli/bjmedina/mem_exp_atexts_2025/mem_stim_42.wav","3","main","","","true","mem_stim_42.wav","false","16","","0","miss"
"","","","","","html-keyboard-response","227","587733","0.0-10.0-1.97","https://mcdermottlab.mit.edu/mturk_stimuli/bjmedina/mem_exp_atexts_2025/sequences/isi_16/len120/seq055_len120_s15_isi-1p0_0p0_16p0.json","11.19","true","x2u1rnl6jry","","null","<span style=""font-size: 40px"">+</span>","null","","","","","","","","","",""
"","","","","","audio-button-response","228","591839","0.0-10.0-2.97","https://mcdermottlab.mit.edu/mturk_stimuli/bjmedina/mem_exp_atexts_2025/sequences/isi_16/len120/seq055_len120_s15_isi-1p0_0p0_16p0.json","11.19","true","x2u1rnl6jry","","2669","https://mcdermottlab.mit.edu/mturk_stimuli/bjmedina/mem_exp_atexts_2025/mem_stim_40.wav","3","main","","","false","mem_stim_40.wav","false","-1","","1","correct_rejection"
"","","","","","html-keyboard-response","229","591913","0.0-10.0-1.98","https://mcdermottlab.mit.edu/mturk_stimuli/bjmedina/mem_exp_atexts_2025/sequences/isi_16/len120/seq055_len120_s15_isi-1p0_0p0_16p0.json","11.19","true","x2u1rnl6jry","","null","<span style=""font-size: 40px"">+</span>","null","","","","","","","","","",""
"","","","","","audio-button-response","230","595510","0.0-10.0-2.98","https://mcdermottlab.mit.edu/mturk_stimuli/bjmedina/mem_exp_atexts_2025/sequences/isi_16/len120/seq055_len120_s15_isi-1p0_0p0_16p0.json","11.19","true","x2u1rnl6jry","","2789","https://mcdermottlab.mit.edu/mturk_stimuli/bjmedina/mem_exp_atexts_2025/mem_stim_25.wav","0","main","","","false","mem_stim_25.wav","false","-1","","1","correct_rejection"
"","","","","","html-keyboard-response","231","595580","0.0-10.0-1.99","https://mcdermottlab.mit.edu/mturk_stimuli/bjmedina/mem_exp_atexts_2025/sequences/isi_16/len120/seq055_len120_s15_isi-1p0_0p0_16p0.json","11.19","true","x2u1rnl6jry","","null","<span style=""font-size: 40px"">+</span>","null","","","","","","","","","",""
"","","","","","audio-button-response","232","598124","0.0-10.0-2.99","https://mcdermottlab.mit.edu/mturk_stimuli/bjmedina/mem_exp_atexts_2025/sequences/isi_16/len120/seq055_len120_s15_isi-1p0_0p0_16p0.json","11.19","true","x2u1rnl6jry","","2549","https://mcdermottlab.mit.edu/mturk_stimuli/bjmedina/mem_exp_atexts_2025/mem_stim_25.wav","3","main","","","true","mem_stim_25.wav","true","0","","0","miss"
"","","","","","html-keyboard-response","233","598197","0.0-10.0-1.100","https://mcdermottlab.mit.edu/mturk_stimuli/bjmedina/mem_exp_atexts_2025/sequences/isi_16/len120/seq055_len120_s15_isi-1p0_0p0_16p0.json","11.19","true","x2u1rnl6jry","","null","<span style=""font-size: 40px"">+</span>","null","","","","","","","","","",""
"","","","","","audio-button-response","234","601506","0.0-10.0-2.100","https://mcdermottlab.mit.edu/mturk_stimuli/bjmedina/mem_exp_atexts_2025/sequences/isi_16/len120/seq055_len120_s15_isi-1p0_0p0_16p0.json","11.19","true","x2u1rnl6jry","","2459","https://mcdermottlab.mit.edu/mturk_stimuli/bjmedina/mem_exp_atexts_2025/mem_stim_64.wav","0","main","","","false","mem_stim_64.wav","false","-1","","1","correct_rejection"
"","","","","","html-keyboard-response","235","601580","0.0-10.0-1.101","https://mcdermottlab.mit.edu/mturk_stimuli/bjmedina/mem_exp_atexts_2025/sequences/isi_16/len120/seq055_len120_s15_isi-1p0_0p0_16p0.json","11.19","true","x2u1rnl6jry","","null","<span style=""font-size: 40px"">+</span>","null","","","","","","","","","",""
"","","","","","audio-button-response","236","605236","0.0-10.0-2.101","https://mcdermottlab.mit.edu/mturk_stimuli/bjmedina/mem_exp_atexts_2025/sequences/isi_16/len120/seq055_len120_s15_isi-1p0_0p0_16p0.json","11.19","true","x2u1rnl6jry","","2829","https://mcdermottlab.mit.edu/mturk_stimuli/bjmedina/mem_exp_atexts_2025/mem_stim_45.wav","0","main","","","false","mem_stim_45.wav","false","-1","","1","correct_rejection"
"","","","","","html-keyboard-response","237","605294","0.0-10.0-1.102","https://mcdermottlab.mit.edu/mturk_stimuli/bjmedina/mem_exp_atexts_2025/sequences/isi_16/len120/seq055_len120_s15_isi-1p0_0p0_16p0.json","11.19","true","x2u1rnl6jry","","null","<span style=""font-size: 40px"">+</span>","null","","","","","","","","","",""
"","","","","","audio-button-response","238","609377","0.0-10.0-2.102","https://mcdermottlab.mit.edu/mturk_stimuli/bjmedina/mem_exp_atexts_2025/sequences/isi_16/len120/seq055_len120_s15_isi-1p0_0p0_16p0.json","11.19","true","x2u1rnl6jry","","2491","https://mcdermottlab.mit.edu/mturk_stimuli/bjmedina/mem_exp_atexts_2025/mem_stim_27.wav","3","main","","","false","mem_stim_27.wav","false","-1","","1","correct_rejection"
"","","","","","html-keyboard-response","239","609442","0.0-10.0-1.103","https://mcdermottlab.mit.edu/mturk_stimuli/bjmedina/mem_exp_atexts_2025/sequences/isi_16/len120/seq055_len120_s15_isi-1p0_0p0_16p0.json","11.19","true","x2u1rnl6jry","","null","<span style=""font-size: 40px"">+</span>","null","","","","","","","","","",""
"","","","","","audio-button-response","240","611910","0.0-10.0-2.103","https://mcdermottlab.mit.edu/mturk_stimuli/bjmedina/mem_exp_atexts_2025/sequences/isi_16/len120/seq055_len120_s15_isi-1p0_0p0_16p0.json","11.19","true","x2u1rnl6jry","","2459","https://mcdermottlab.mit.edu/mturk_stimuli/bjmedina/mem_exp_atexts_2025/mem_stim_27.wav","3","main","","","true","mem_stim_27.wav","true","0","","0","miss"
"","","","","","html-keyboard-response","241","611979","0.0-10.0-1.104","https://mcdermottlab.mit.edu/mturk_stimuli/bjmedina/mem_exp_atexts_2025/sequences/isi_16/len120/seq055_len120_s15_isi-1p0_0p0_16p0.json","11.19","true","x2u1rnl6jry","","null","<span style=""font-size: 40px"">+</span>","null","","","","","","","","","",""
"","","","","","audio-button-response","242","616619","0.0-10.0-2.104","https://mcdermottlab.mit.edu/mturk_stimuli/bjmedina/mem_exp_atexts_2025/sequences/isi_16/len120/seq055_len120_s15_isi-1p0_0p0_16p0.json","11.19","true","x2u1rnl6jry","","2112","https://mcdermottlab.mit.edu/mturk_stimuli/bjmedina/mem_exp_atexts_2025/mem_stim_0.wav","3","main","","","false","mem_stim_0.wav","false","-1","","1","correct_rejection"
"","","","","","html-keyboard-response","243","616693","0.0-10.0-1.105","https://mcdermottlab.mit.edu/mturk_stimuli/bjmedina/mem_exp_atexts_2025/sequences/isi_16/len120/seq055_len120_s15_isi-1p0_0p0_16p0.json","11.19","true","x2u1rnl6jry","","null","<span style=""font-size: 40px"">+</span>","null","","","","","","","","","",""
"","","","","","audio-button-response","244","619173","0.0-10.0-2.105","https://mcdermottlab.mit.edu/mturk_stimuli/bjmedina/mem_exp_atexts_2025/sequences/isi_16/len120/seq055_len120_s15_isi-1p0_0p0_16p0.json","11.19","true","x2u1rnl6jry","","2469","https://mcdermottlab.mit.edu/mturk_stimuli/bjmedina/mem_exp_atexts_2025/mem_stim_43.wav","3","main","","","true","mem_stim_43.wav","false","16","","0","miss"
"","","","","","html-keyboard-response","245","619242","0.0-10.0-1.106","https://mcdermottlab.mit.edu/mturk_stimuli/bjmedina/mem_exp_atexts_2025/sequences/isi_16/len120/seq055_len120_s15_isi-1p0_0p0_16p0.json","11.19","true","x2u1rnl6jry","","null","<span style=""font-size: 40px"">+</span>","null","","","","","","","","","",""
"","","","","","audio-button-response","246","622565","0.0-10.0-2.106","https://mcdermottlab.mit.edu/mturk_stimuli/bjmedina/mem_exp_atexts_2025/sequences/isi_16/len120/seq055_len120_s15_isi-1p0_0p0_16p0.json","11.19","true","x2u1rnl6jry","","2600","https://mcdermottlab.mit.edu/mturk_stimuli/bjmedina/mem_exp_atexts_2025/mem_stim_17.wav","3","main","","","false","mem_stim_17.wav","false","-1","","1","correct_rejection"
"","","","","","html-keyboard-response","247","622642","0.0-10.0-1.107","https://mcdermottlab.mit.edu/mturk_stimuli/bjmedina/mem_exp_atexts_2025/sequences/isi_16/len120/seq055_len120_s15_isi-1p0_0p0_16p0.json","11.19","true","x2u1rnl6jry","","null","<span style=""font-size: 40px"">+</span>","null","","","","","","","","","",""
"","","","","","audio-button-response","248","627032","0.0-10.0-2.107","https://mcdermottlab.mit.edu/mturk_stimuli/bjmedina/mem_exp_atexts_2025/sequences/isi_16/len120/seq055_len120_s15_isi-1p0_0p0_16p0.json","11.19","true","x2u1rnl6jry","","2560","https://mcdermottlab.mit.edu/mturk_stimuli/bjmedina/mem_exp_atexts_2025/mem_stim_20.wav","0","main","","","false","mem_stim_20.wav","false","-1","","1","correct_rejection"
"","","","","","html-keyboard-response","249","627092","0.0-10.0-1.108","https://mcdermottlab.mit.edu/mturk_stimuli/bjmedina/mem_exp_atexts_2025/sequences/isi_16/len120/seq055_len120_s15_isi-1p0_0p0_16p0.json","11.19","true","x2u1rnl6jry","","null","<span style=""font-size: 40px"">+</span>","null","","","","","","","","","",""
"","","","","","audio-button-response","250","629576","0.0-10.0-2.108","https://mcdermottlab.mit.edu/mturk_stimuli/bjmedina/mem_exp_atexts_2025/sequences/isi_16/len120/seq055_len120_s15_isi-1p0_0p0_16p0.json","11.19","true","x2u1rnl6jry","","2491","https://mcdermottlab.mit.edu/mturk_stimuli/bjmedina/mem_exp_atexts_2025/mem_stim_20.wav","3","main","","","true","mem_stim_20.wav","true","0","","0","miss"
"","","","","","html-keyboard-response","251","629642","0.0-10.0-1.109","https://mcdermottlab.mit.edu/mturk_stimuli/bjmedina/mem_exp_atexts_2025/sequences/isi_16/len120/seq055_len120_s15_isi-1p0_0p0_16p0.json","11.19","true","x2u1rnl6jry","","null","<span style=""font-size: 40px"">+</span>","null","","","","","","","","","",""
"","","","","","audio-button-response","252","633489","0.0-10.0-2.109","https://mcdermottlab.mit.edu/mturk_stimuli/bjmedina/mem_exp_atexts_2025/sequences/isi_16/len120/seq055_len120_s15_isi-1p0_0p0_16p0.json","11.19","true","x2u1rnl6jry","","2589","https://mcdermottlab.mit.edu/mturk_stimuli/bjmedina/mem_exp_atexts_2025/mem_stim_19.wav","3","main","","","false","mem_stim_19.wav","false","-1","","1","correct_rejection"
"","","","","","html-keyboard-response","253","633560","0.0-10.0-1.110","https://mcdermottlab.mit.edu/mturk_stimuli/bjmedina/mem_exp_atexts_2025/sequences/isi_16/len120/seq055_len120_s15_isi-1p0_0p0_16p0.json","11.19","true","x2u1rnl6jry","","null","<span style=""font-size: 40px"">+</span>","null","","","","","","","","","",""
"","","","","","audio-button-response","254","636122","0.0-10.0-2.110","https://mcdermottlab.mit.edu/mturk_stimuli/bjmedina/mem_exp_atexts_2025/sequences/isi_16/len120/seq055_len120_s15_isi-1p0_0p0_16p0.json","11.19","true","x2u1rnl6jry","","2560","https://mcdermottlab.mit.edu/mturk_stimuli/bjmedina/mem_exp_atexts_2025/mem_stim_57.wav","3","main","","","true","mem_stim_57.wav","false","16","","0","miss"
"","","","","","html-keyboard-response","255","636192","0.0-10.0-1.111","https://mcdermottlab.mit.edu/mturk_stimuli/bjmedina/mem_exp_atexts_2025/sequences/isi_16/len120/seq055_len120_s15_isi-1p0_0p0_16p0.json","11.19","true","x2u1rnl6jry","","null","<span style=""font-size: 40px"">+</span>","null","","","","","","","","","",""
"","","","","","audio-button-response","256","639065","0.0-10.0-2.111","https://mcdermottlab.mit.edu/mturk_stimuli/bjmedina/mem_exp_atexts_2025/sequences/isi_16/len120/seq055_len120_s15_isi-1p0_0p0_16p0.json","11.19","true","x2u1rnl6jry","","2880","https://mcdermottlab.mit.edu/mturk_stimuli/bjmedina/mem_exp_atexts_2025/mem_stim_33.wav","0","main","","","true","mem_stim_33.wav","false","16","","0","miss"
"","","","","","html-keyboard-response","257","639142","0.0-10.0-1.112","https://mcdermottlab.mit.edu/mturk_stimuli/bjmedina/mem_exp_atexts_2025/sequences/isi_16/len120/seq055_len120_s15_isi-1p0_0p0_16p0.json","11.19","true","x2u1rnl6jry","","null","<span style=""font-size: 40px"">+</span>","null","","","","","","","","","",""
"","","","","","audio-button-response","258","641708","0.0-10.0-2.112","https://mcdermottlab.mit.edu/mturk_stimuli/bjmedina/mem_exp_atexts_2025/sequences/isi_16/len120/seq055_len120_s15_isi-1p0_0p0_16p0.json","11.19","true","x2u1rnl6jry","","2568","https://mcdermottlab.mit.edu/mturk_stimuli/bjmedina/mem_exp_atexts_2025/mem_stim_34.wav","2","main","","","true","mem_stim_34.wav","false","16","","0","miss"
"","","","","","html-keyboard-response","259","641773","0.0-10.0-1.113","https://mcdermottlab.mit.edu/mturk_stimuli/bjmedina/mem_exp_atexts_2025/sequences/isi_16/len120/seq055_len120_s15_isi-1p0_0p0_16p0.json","11.19","true","x2u1rnl6jry","","null","<span style=""font-size: 40px"">+</span>","null","","","","","","","","","",""
"","","","","","audio-button-response","260","645749","0.0-10.0-2.113","https://mcdermottlab.mit.edu/mturk_stimuli/bjmedina/mem_exp_atexts_2025/sequences/isi_16/len120/seq055_len120_s15_isi-1p0_0p0_16p0.json","11.19","true","x2u1rnl6jry","","2688","https://mcdermottlab.mit.edu/mturk_stimuli/bjmedina/mem_exp_atexts_2025/mem_stim_14.wav","0","main","","","false","mem_stim_14.wav","false","-1","","1","correct_rejection"
"","","","","","html-keyboard-response","261","645824","0.0-10.0-1.114","https://mcdermottlab.mit.edu/mturk_stimuli/bjmedina/mem_exp_atexts_2025/sequences/isi_16/len120/seq055_len120_s15_isi-1p0_0p0_16p0.json","11.19","true","x2u1rnl6jry","","null","<span style=""font-size: 40px"">+</span>","null","","","","","","","","","",""
"","","","","","audio-button-response","262","648961","0.0-10.0-2.114","https://mcdermottlab.mit.edu/mturk_stimuli/bjmedina/mem_exp_atexts_2025/sequences/isi_16/len120/seq055_len120_s15_isi-1p0_0p0_16p0.json","11.19","true","x2u1rnl6jry","","3131","https://mcdermottlab.mit.edu/mturk_stimuli/bjmedina/mem_exp_atexts_2025/mem_stim_40.wav","2","main","","","true","mem_stim_40.wav","false","16","","0","miss"
"","","","","","html-keyboard-response","263","649020","0.0-10.0-1.115","https://mcdermottlab.mit.edu/mturk_stimuli/bjmedina/mem_exp_atexts_2025/sequences/isi_16/len120/seq055_len120_s15_isi-1p0_0p0_16p0.json","11.19","true","x2u1rnl6jry","","null","<span style=""font-size: 40px"">+</span>","null","","","","","","","","","",""
"","","","","","audio-button-response","264","653069","0.0-10.0-2.115","https://mcdermottlab.mit.edu/mturk_stimuli/bjmedina/mem_exp_atexts_2025/sequences/isi_16/len120/seq055_len120_s15_isi-1p0_0p0_16p0.json","11.19","true","x2u1rnl6jry","","3288","https://mcdermottlab.mit.edu/mturk_stimuli/bjmedina/mem_exp_atexts_2025/mem_stim_76.wav","0","main","","","false","mem_stim_76.wav","false","-1","","1","correct_rejection"
"","","","","","html-keyboard-response","265","653141","0.0-10.0-1.116","https://mcdermottlab.mit.edu/mturk_stimuli/bjmedina/mem_exp_atexts_2025/sequences/isi_16/len120/seq055_len120_s15_isi-1p0_0p0_16p0.json","11.19","true","x2u1rnl6jry","","null","<span style=""font-size: 40px"">+</span>","null","","","","","","","","","",""
"","","","","","audio-button-response","266","658407","0.0-10.0-2.116","https://mcdermottlab.mit.edu/mturk_stimuli/bjmedina/mem_exp_atexts_2025/sequences/isi_16/len120/seq055_len120_s15_isi-1p0_0p0_16p0.json","11.19","true","x2u1rnl6jry","","3520","https://mcdermottlab.mit.edu/mturk_stimuli/bjmedina/mem_exp_atexts_2025/mem_stim_63.wav","1","main","","","false","mem_stim_63.wav","false","-1","","0","false_alarm"
"","","","","","html-keyboard-response","267","658471","0.0-10.0-1.117","https://mcdermottlab.mit.edu/mturk_stimuli/bjmedina/mem_exp_atexts_2025/sequences/isi_16/len120/seq055_len120_s15_isi-1p0_0p0_16p0.json","11.19","true","x2u1rnl6jry","","null","<span style=""font-size: 40px"">+</span>","null","","","","","","","","","",""
"","","","","","audio-button-response","268","662069","0.0-10.0-2.117","https://mcdermottlab.mit.edu/mturk_stimuli/bjmedina/mem_exp_atexts_2025/sequences/isi_16/len120/seq055_len120_s15_isi-1p0_0p0_16p0.json","11.19","true","x2u1rnl6jry","","2699","https://mcdermottlab.mit.edu/mturk_stimuli/bjmedina/mem_exp_atexts_2025/mem_stim_74.wav","3","main","","","false","mem_stim_74.wav","false","-1","","1","correct_rejection"
