"success","timeout","failed_images","failed_audio","failed_video","trial_type","trial_index","time_elapsed","internal_node_id","sequence_file","pay","passed_hc","completion_code","view_history","rt","stimulus","response","stim_type","hc_answer","correct_hc","repeat","yt_id","catch","isi","type","is_correct","response_type"
"true","false","[]","[]","[]","preload","0","74","0.0-0.0","https://mcdermottlab.mit.edu/mturk_stimuli/bjmedina/mem_exp_ind-nature_2025/sequences/isi_16/len120/seq053_len120_tol0_s15_isi-1p0_0p0_16p0.json","11.1","true","5g0efzobl0q","","","","","","","","","","","","","",""
"","","","","","instructions","1","2550","0.0-1.0","https://mcdermottlab.mit.edu/mturk_stimuli/bjmedina/mem_exp_ind-nature_2025/sequences/isi_16/len120/seq053_len120_tol0_s15_isi-1p0_0p0_16p0.json","11.1","true","5g0efzobl0q","[{""page_index"":0,""viewing_time"":2475}]","2475","","","","","","","","","","","",""
"","","","","","instructions","2","6031","0.0-2.0","https://mcdermottlab.mit.edu/mturk_stimuli/bjmedina/mem_exp_ind-nature_2025/sequences/isi_16/len120/seq053_len120_tol0_s15_isi-1p0_0p0_16p0.json","11.1","true","5g0efzobl0q","[{""page_index"":0,""viewing_time"":3481}]","3481","","","","","","","","","","","",""
"","","","","","audio-button-response","3","13559","0.0-3.0-0.0","https://mcdermottlab.mit.edu/mturk_stimuli/bjmedina/mem_exp_ind-nature_2025/sequences/isi_16/len120/seq053_len120_tol0_s15_isi-1p0_0p0_16p0.json","11.1","true","5g0efzobl0q","","7221","https://mcdermottlab.mit.edu/bjmedina/experiments/mem_exp_v01/assets/noise_calib_stim.wav","0","","","","","","","","","",""
"","","","","","audio-button-response","4","16150","0.0-3.1-0.1","https://mcdermottlab.mit.edu/mturk_stimuli/bjmedina/mem_exp_ind-nature_2025/sequences/isi_16/len120/seq053_len120_tol0_s15_isi-1p0_0p0_16p0.json","11.1","true","5g0efzobl0q","","2589","https://mcdermottlab.mit.edu/bjmedina/experiments/mem_exp_v01/assets/noise_calib_stim.wav","1","","","","","","","","","",""
"","","","","","instructions","5","27204","0.0-4.0","https://mcdermottlab.mit.edu/mturk_stimuli/bjmedina/mem_exp_ind-nature_2025/sequences/isi_16/len120/seq053_len120_tol0_s15_isi-1p0_0p0_16p0.json","11.1","true","5g0efzobl0q","[{""page_index"":0,""viewing_time"":11054}]","11054","","","","","","","","","","","",""
"","","","","","audio-button-response","6","32417","0.0-5.0-0.0","https://mcdermottlab.mit.edu/mturk_stimuli/bjmedina/mem_exp_ind-nature_2025/sequences/isi_16/len120/seq053_len120_tol0_s15_isi-1p0_0p0_16p0.json","11.1","true","5g0efzobl0q","","4862","https://mcdermottlab.mit.edu/bjmedina/experiments/mem_exp_v01/assets/antiphase_HC_OIS.wav","2","hc","3","1","","","","","","",""
"","","","","","audio-button-response","7","36795","0.0-5.0-0.1","https://mcdermottlab.mit.edu/mturk_stimuli/bjmedina/mem_exp_ind-nature_2025/sequences/isi_16/len120/seq053_len120_tol0_s15_isi-1p0_0p0_16p0.json","11.1","true","5g0efzobl0q","","4119","https://mcdermottlab.mit.edu/bjmedina/experiments/mem_exp_v01/assets/antiphase_HC_SOI.wav","0","hc","1","1","","","","","","",""
"","","","","","audio-button-response","8","41039","0.0-5.0-0.2","https://mcdermottlab.mit.edu/mturk_stimuli/bjmedina/mem_exp_ind-nature_2025/sequences/isi_16/len120/seq053_len120_tol0_s15_isi-1p0_0p0_16p0.json","11.1","true","5g0efzobl0q","","3991","https://mcdermottlab.mit.edu/bjmedina/experiments/mem_exp_v01/assets/antiphase_HC_OSI.wav","1","hc","2","1","","","","","","",""
"","","","","","audio-button-response","9","45166","0.0-5.0-0.3","https://mcdermottlab.mit.edu/mturk_stimuli/bjmedina/mem_exp_ind-nature_2025/sequences/isi_16/len120/seq053_len120_tol0_s15_isi-1p0_0p0_16p0.json","11.1","true","5g0efzobl0q","","3881","https://mcdermottlab.mit.edu/bjmedina/experiments/mem_exp_v01/assets/antiphase_HC_SIO.wav","0","hc","1","1","","","","","","",""
"","","","","","audio-button-response","10","49703","0.0-5.0-0.4","https://mcdermottlab.mit.edu/mturk_stimuli/bjmedina/mem_exp_ind-nature_2025/sequences/isi_16/len120/seq053_len120_tol0_s15_isi-1p0_0p0_16p0.json","11.1","true","5g0efzobl0q","","4270","https://mcdermottlab.mit.edu/bjmedina/experiments/mem_exp_v01/assets/antiphase_HC_IOS.wav","2","hc","3","1","","","","","","",""
"","","","","","audio-button-response","11","53695","0.0-5.0-0.5","https://mcdermottlab.mit.edu/mturk_stimuli/bjmedina/mem_exp_ind-nature_2025/sequences/isi_16/len120/seq053_len120_tol0_s15_isi-1p0_0p0_16p0.json","11.1","true","5g0efzobl0q","","3738","https://mcdermottlab.mit.edu/bjmedina/experiments/mem_exp_v01/assets/antiphase_HC_ISO.wav","1","hc","2","1","","","","","","",""
"","","","","","html-keyboard-response","12","56266","0.0-6.0","https://mcdermottlab.mit.edu/mturk_stimuli/bjmedina/mem_exp_ind-nature_2025/sequences/isi_16/len120/seq053_len120_tol0_s15_isi-1p0_0p0_16p0.json","11.1","true","5g0efzobl0q","","2571","<h1>You have finished the LOUDNESS task!</h1> <p>Press space to continue</p>"," ","","","","","","","","","",""
"","","","","","instructions","13","680118","0.0-7.0","https://mcdermottlab.mit.edu/mturk_stimuli/bjmedina/mem_exp_ind-nature_2025/sequences/isi_16/len120/seq053_len120_tol0_s15_isi-1p0_0p0_16p0.json","11.1","true","5g0efzobl0q","[{""page_index"":0,""viewing_time"":2658},{""page_index"":1,""viewing_time"":5042},{""page_index"":2,""viewing_time"":450617},{""page_index"":3,""viewing_time"":3},{""page_index"":2,""viewing_time"":1},{""page_index"":3,""viewing_time"":165529}]","623849","","","","","","","","","","","",""
"","","","","","html-keyboard-response","14","680170","0.0-8.0-0.0","https://mcdermottlab.mit.edu/mturk_stimuli/bjmedina/mem_exp_ind-nature_2025/sequences/isi_16/len120/seq053_len120_tol0_s15_isi-1p0_0p0_16p0.json","11.1","true","5g0efzobl0q","","null","<span style=""font-size: 40px"">+</span>","null","fixation","","","","","","","","",""
"","","","","","audio-button-response","15","685695","0.0-8.0-1.0","https://mcdermottlab.mit.edu/mturk_stimuli/bjmedina/mem_exp_ind-nature_2025/sequences/isi_16/len120/seq053_len120_tol0_s15_isi-1p0_0p0_16p0.json","11.1","true","5g0efzobl0q","","4949","https://mcdermottlab.mit.edu/mturk_stimuli/bjmedina/mem_exp_v05/mem_stim_1023_f32.wav","0","demo","","","0","","","","","",""
"","","","","","html-keyboard-response","16","685758","0.0-8.0-0.1","https://mcdermottlab.mit.edu/mturk_stimuli/bjmedina/mem_exp_ind-nature_2025/sequences/isi_16/len120/seq053_len120_tol0_s15_isi-1p0_0p0_16p0.json","11.1","true","5g0efzobl0q","","null","<span style=""font-size: 40px"">+</span>","null","fixation","","","","","","","","",""
"","","","","","audio-button-response","17","688826","0.0-8.0-1.1","https://mcdermottlab.mit.edu/mturk_stimuli/bjmedina/mem_exp_ind-nature_2025/sequences/isi_16/len120/seq053_len120_tol0_s15_isi-1p0_0p0_16p0.json","11.1","true","5g0efzobl0q","","2592","https://mcdermottlab.mit.edu/mturk_stimuli/bjmedina/mem_exp_v05/mem_stim_1022_f32.wav","0","demo","","","0","","","","","",""
"","","","","","html-keyboard-response","18","688885","0.0-8.0-0.2","https://mcdermottlab.mit.edu/mturk_stimuli/bjmedina/mem_exp_ind-nature_2025/sequences/isi_16/len120/seq053_len120_tol0_s15_isi-1p0_0p0_16p0.json","11.1","true","5g0efzobl0q","","null","<span style=""font-size: 40px"">+</span>","null","fixation","","","","","","","","",""
"","","","","","audio-button-response","19","691435","0.0-8.0-1.2","https://mcdermottlab.mit.edu/mturk_stimuli/bjmedina/mem_exp_ind-nature_2025/sequences/isi_16/len120/seq053_len120_tol0_s15_isi-1p0_0p0_16p0.json","11.1","true","5g0efzobl0q","","2551","https://mcdermottlab.mit.edu/mturk_stimuli/bjmedina/mem_exp_v05/mem_stim_1022_f32.wav","3","demo","","","1","","","","","",""
"","","","","","html-keyboard-response","20","691490","0.0-8.0-0.3","https://mcdermottlab.mit.edu/mturk_stimuli/bjmedina/mem_exp_ind-nature_2025/sequences/isi_16/len120/seq053_len120_tol0_s15_isi-1p0_0p0_16p0.json","11.1","true","5g0efzobl0q","","null","<span style=""font-size: 40px"">+</span>","null","fixation","","","","","","","","",""
"","","","","","audio-button-response","21","696570","0.0-8.0-1.3","https://mcdermottlab.mit.edu/mturk_stimuli/bjmedina/mem_exp_ind-nature_2025/sequences/isi_16/len120/seq053_len120_tol0_s15_isi-1p0_0p0_16p0.json","11.1","true","5g0efzobl0q","","4702","https://mcdermottlab.mit.edu/mturk_stimuli/bjmedina/mem_exp_v05/mem_stim_1021_f32.wav","0","demo","","","0","","","","","",""
"","","","","","html-keyboard-response","22","696636","0.0-8.0-0.4","https://mcdermottlab.mit.edu/mturk_stimuli/bjmedina/mem_exp_ind-nature_2025/sequences/isi_16/len120/seq053_len120_tol0_s15_isi-1p0_0p0_16p0.json","11.1","true","5g0efzobl0q","","null","<span style=""font-size: 40px"">+</span>","null","fixation","","","","","","","","",""
"","","","","","audio-button-response","23","699115","0.0-8.0-1.4","https://mcdermottlab.mit.edu/mturk_stimuli/bjmedina/mem_exp_ind-nature_2025/sequences/isi_16/len120/seq053_len120_tol0_s15_isi-1p0_0p0_16p0.json","11.1","true","5g0efzobl0q","","2482","https://mcdermottlab.mit.edu/mturk_stimuli/bjmedina/mem_exp_v05/mem_stim_1023_f32.wav","3","demo","","","1","","","","","",""
"","","","","","html-keyboard-response","24","699172","0.0-8.0-0.5","https://mcdermottlab.mit.edu/mturk_stimuli/bjmedina/mem_exp_ind-nature_2025/sequences/isi_16/len120/seq053_len120_tol0_s15_isi-1p0_0p0_16p0.json","11.1","true","5g0efzobl0q","","null","<span style=""font-size: 40px"">+</span>","null","fixation","","","","","","","","",""
"","","","","","audio-button-response","25","702012","0.0-8.0-1.5","https://mcdermottlab.mit.edu/mturk_stimuli/bjmedina/mem_exp_ind-nature_2025/sequences/isi_16/len120/seq053_len120_tol0_s15_isi-1p0_0p0_16p0.json","11.1","true","5g0efzobl0q","","2519","https://mcdermottlab.mit.edu/mturk_stimuli/bjmedina/mem_exp_v05/mem_stim_1020_f32.wav","0","demo","","","0","","","","","",""
"","","","","","html-keyboard-response","26","702076","0.0-8.0-0.6","https://mcdermottlab.mit.edu/mturk_stimuli/bjmedina/mem_exp_ind-nature_2025/sequences/isi_16/len120/seq053_len120_tol0_s15_isi-1p0_0p0_16p0.json","11.1","true","5g0efzobl0q","","null","<span style=""font-size: 40px"">+</span>","null","fixation","","","","","","","","",""
"","","","","","audio-button-response","27","705131","0.0-8.0-1.6","https://mcdermottlab.mit.edu/mturk_stimuli/bjmedina/mem_exp_ind-nature_2025/sequences/isi_16/len120/seq053_len120_tol0_s15_isi-1p0_0p0_16p0.json","11.1","true","5g0efzobl0q","","2781","https://mcdermottlab.mit.edu/mturk_stimuli/bjmedina/mem_exp_v05/mem_stim_1019_f32.wav","0","demo","","","0","","","","","",""
"","","","","","html-keyboard-response","28","705182","0.0-8.0-0.7","https://mcdermottlab.mit.edu/mturk_stimuli/bjmedina/mem_exp_ind-nature_2025/sequences/isi_16/len120/seq053_len120_tol0_s15_isi-1p0_0p0_16p0.json","11.1","true","5g0efzobl0q","","null","<span style=""font-size: 40px"">+</span>","null","fixation","","","","","","","","",""
"","","","","","audio-button-response","29","708111","0.0-8.0-1.7","https://mcdermottlab.mit.edu/mturk_stimuli/bjmedina/mem_exp_ind-nature_2025/sequences/isi_16/len120/seq053_len120_tol0_s15_isi-1p0_0p0_16p0.json","11.1","true","5g0efzobl0q","","2932","https://mcdermottlab.mit.edu/mturk_stimuli/bjmedina/mem_exp_v05/mem_stim_1021_f32.wav","3","demo","","","1","","","","","",""
"","","","","","html-keyboard-response","30","710375","0.0-9.0","https://mcdermottlab.mit.edu/mturk_stimuli/bjmedina/mem_exp_ind-nature_2025/sequences/isi_16/len120/seq053_len120_tol0_s15_isi-1p0_0p0_16p0.json","11.1","true","5g0efzobl0q","","2263","<p>You are now ready to start the experiment. Press SPACE when you are ready to start.</p>"," ","","","","","","","","","",""
"","","","","","html-keyboard-response","31","710432","0.0-10.0-1.0","https://mcdermottlab.mit.edu/mturk_stimuli/bjmedina/mem_exp_ind-nature_2025/sequences/isi_16/len120/seq053_len120_tol0_s15_isi-1p0_0p0_16p0.json","11.1","true","5g0efzobl0q","","null","<span style=""font-size: 40px"">+</span>","null","","","","","","","","","",""
"","","","","","audio-button-response","32","714530","0.0-10.0-2.0","https://mcdermottlab.mit.edu/mturk_stimuli/bjmedina/mem_exp_ind-nature_2025/sequences/isi_16/len120/seq053_len120_tol0_s15_isi-1p0_0p0_16p0.json","11.1","true","5g0efzobl0q","","3762","https://mcdermottlab.mit.edu/mturk_stimuli/bjmedina/mem_exp_ind-nature_2025/mem_stim_70.wav","0","main","","","false","mem_stim_70.wav","false","-1","","1","correct_rejection"
"","","","","","html-keyboard-response","33","714589","0.0-10.0-1.1","https://mcdermottlab.mit.edu/mturk_stimuli/bjmedina/mem_exp_ind-nature_2025/sequences/isi_16/len120/seq053_len120_tol0_s15_isi-1p0_0p0_16p0.json","11.1","true","5g0efzobl0q","","null","<span style=""font-size: 40px"">+</span>","null","","","","","","","","","",""
"","","","","","audio-button-response","34","719478","0.0-10.0-2.1","https://mcdermottlab.mit.edu/mturk_stimuli/bjmedina/mem_exp_ind-nature_2025/sequences/isi_16/len120/seq053_len120_tol0_s15_isi-1p0_0p0_16p0.json","11.1","true","5g0efzobl0q","","4577","https://mcdermottlab.mit.edu/mturk_stimuli/bjmedina/mem_exp_ind-nature_2025/mem_stim_38.wav","0","main","","","false","mem_stim_38.wav","false","-1","","1","correct_rejection"
"","","","","","html-keyboard-response","35","719535","0.0-10.0-1.2","https://mcdermottlab.mit.edu/mturk_stimuli/bjmedina/mem_exp_ind-nature_2025/sequences/isi_16/len120/seq053_len120_tol0_s15_isi-1p0_0p0_16p0.json","11.1","true","5g0efzobl0q","","null","<span style=""font-size: 40px"">+</span>","null","","","","","","","","","",""
"","","","","","audio-button-response","36","722334","0.0-10.0-2.2","https://mcdermottlab.mit.edu/mturk_stimuli/bjmedina/mem_exp_ind-nature_2025/sequences/isi_16/len120/seq053_len120_tol0_s15_isi-1p0_0p0_16p0.json","11.1","true","5g0efzobl0q","","2601","https://mcdermottlab.mit.edu/mturk_stimuli/bjmedina/mem_exp_ind-nature_2025/mem_stim_52.wav","0","main","","","false","mem_stim_52.wav","false","-1","","1","correct_rejection"
"","","","","","html-keyboard-response","37","722388","0.0-10.0-1.3","https://mcdermottlab.mit.edu/mturk_stimuli/bjmedina/mem_exp_ind-nature_2025/sequences/isi_16/len120/seq053_len120_tol0_s15_isi-1p0_0p0_16p0.json","11.1","true","5g0efzobl0q","","null","<span style=""font-size: 40px"">+</span>","null","","","","","","","","","",""
"","","","","","audio-button-response","38","724839","0.0-10.0-2.3","https://mcdermottlab.mit.edu/mturk_stimuli/bjmedina/mem_exp_ind-nature_2025/sequences/isi_16/len120/seq053_len120_tol0_s15_isi-1p0_0p0_16p0.json","11.1","true","5g0efzobl0q","","2241","https://mcdermottlab.mit.edu/mturk_stimuli/bjmedina/mem_exp_ind-nature_2025/mem_stim_74.wav","0","main","","","false","mem_stim_74.wav","false","-1","","1","correct_rejection"
"","","","","","html-keyboard-response","39","724898","0.0-10.0-1.4","https://mcdermottlab.mit.edu/mturk_stimuli/bjmedina/mem_exp_ind-nature_2025/sequences/isi_16/len120/seq053_len120_tol0_s15_isi-1p0_0p0_16p0.json","11.1","true","5g0efzobl0q","","null","<span style=""font-size: 40px"">+</span>","null","","","","","","","","","",""
"","","","","","audio-button-response","40","727791","0.0-10.0-2.4","https://mcdermottlab.mit.edu/mturk_stimuli/bjmedina/mem_exp_ind-nature_2025/sequences/isi_16/len120/seq053_len120_tol0_s15_isi-1p0_0p0_16p0.json","11.1","true","5g0efzobl0q","","2589","https://mcdermottlab.mit.edu/mturk_stimuli/bjmedina/mem_exp_ind-nature_2025/mem_stim_40.wav","0","main","","","false","mem_stim_40.wav","false","-1","","1","correct_rejection"
"","","","","","html-keyboard-response","41","727849","0.0-10.0-1.5","https://mcdermottlab.mit.edu/mturk_stimuli/bjmedina/mem_exp_ind-nature_2025/sequences/isi_16/len120/seq053_len120_tol0_s15_isi-1p0_0p0_16p0.json","11.1","true","5g0efzobl0q","","null","<span style=""font-size: 40px"">+</span>","null","","","","","","","","","",""
"","","","","","audio-button-response","42","730700","0.0-10.0-2.5","https://mcdermottlab.mit.edu/mturk_stimuli/bjmedina/mem_exp_ind-nature_2025/sequences/isi_16/len120/seq053_len120_tol0_s15_isi-1p0_0p0_16p0.json","11.1","true","5g0efzobl0q","","2621","https://mcdermottlab.mit.edu/mturk_stimuli/bjmedina/mem_exp_ind-nature_2025/mem_stim_21.wav","0","main","","","false","mem_stim_21.wav","false","-1","","1","correct_rejection"
"","","","","","html-keyboard-response","43","730755","0.0-10.0-1.6","https://mcdermottlab.mit.edu/mturk_stimuli/bjmedina/mem_exp_ind-nature_2025/sequences/isi_16/len120/seq053_len120_tol0_s15_isi-1p0_0p0_16p0.json","11.1","true","5g0efzobl0q","","null","<span style=""font-size: 40px"">+</span>","null","","","","","","","","","",""
"","","","","","audio-button-response","44","738319","0.0-10.0-2.6","https://mcdermottlab.mit.edu/mturk_stimuli/bjmedina/mem_exp_ind-nature_2025/sequences/isi_16/len120/seq053_len120_tol0_s15_isi-1p0_0p0_16p0.json","11.1","true","5g0efzobl0q","","7279","https://mcdermottlab.mit.edu/mturk_stimuli/bjmedina/mem_exp_ind-nature_2025/mem_stim_19.wav","0","main","","","false","mem_stim_19.wav","false","-1","","1","correct_rejection"
"","","","","","html-keyboard-response","45","738372","0.0-10.0-1.7","https://mcdermottlab.mit.edu/mturk_stimuli/bjmedina/mem_exp_ind-nature_2025/sequences/isi_16/len120/seq053_len120_tol0_s15_isi-1p0_0p0_16p0.json","11.1","true","5g0efzobl0q","","null","<span style=""font-size: 40px"">+</span>","null","","","","","","","","","",""
"","","","","","audio-button-response","46","741681","0.0-10.0-2.7","https://mcdermottlab.mit.edu/mturk_stimuli/bjmedina/mem_exp_ind-nature_2025/sequences/isi_16/len120/seq053_len120_tol0_s15_isi-1p0_0p0_16p0.json","11.1","true","5g0efzobl0q","","2902","https://mcdermottlab.mit.edu/mturk_stimuli/bjmedina/mem_exp_ind-nature_2025/mem_stim_16.wav","0","main","","","false","mem_stim_16.wav","false","-1","","1","correct_rejection"
"","","","","","html-keyboard-response","47","741745","0.0-10.0-1.8","https://mcdermottlab.mit.edu/mturk_stimuli/bjmedina/mem_exp_ind-nature_2025/sequences/isi_16/len120/seq053_len120_tol0_s15_isi-1p0_0p0_16p0.json","11.1","true","5g0efzobl0q","","null","<span style=""font-size: 40px"">+</span>","null","","","","","","","","","",""
"","","","","","audio-button-response","48","744579","0.0-10.0-2.8","https://mcdermottlab.mit.edu/mturk_stimuli/bjmedina/mem_exp_ind-nature_2025/sequences/isi_16/len120/seq053_len120_tol0_s15_isi-1p0_0p0_16p0.json","11.1","true","5g0efzobl0q","","2679","https://mcdermottlab.mit.edu/mturk_stimuli/bjmedina/mem_exp_ind-nature_2025/mem_stim_1.wav","0","main","","","false","mem_stim_1.wav","false","-1","","1","correct_rejection"
"","","","","","html-keyboard-response","49","744644","0.0-10.0-1.9","https://mcdermottlab.mit.edu/mturk_stimuli/bjmedina/mem_exp_ind-nature_2025/sequences/isi_16/len120/seq053_len120_tol0_s15_isi-1p0_0p0_16p0.json","11.1","true","5g0efzobl0q","","null","<span style=""font-size: 40px"">+</span>","null","","","","","","","","","",""
"","","","","","audio-button-response","50","747253","0.0-10.0-2.9","https://mcdermottlab.mit.edu/mturk_stimuli/bjmedina/mem_exp_ind-nature_2025/sequences/isi_16/len120/seq053_len120_tol0_s15_isi-1p0_0p0_16p0.json","11.1","true","5g0efzobl0q","","2612","https://mcdermottlab.mit.edu/mturk_stimuli/bjmedina/mem_exp_ind-nature_2025/mem_stim_1.wav","3","main","","","true","mem_stim_1.wav","true","0","","0","miss"
"","","","","","html-keyboard-response","51","747320","0.0-10.0-1.10","https://mcdermottlab.mit.edu/mturk_stimuli/bjmedina/mem_exp_ind-nature_2025/sequences/isi_16/len120/seq053_len120_tol0_s15_isi-1p0_0p0_16p0.json","11.1","true","5g0efzobl0q","","null","<span style=""font-size: 40px"">+</span>","null","","","","","","","","","",""
"","","","","","audio-button-response","52","750601","0.0-10.0-2.10","https://mcdermottlab.mit.edu/mturk_stimuli/bjmedina/mem_exp_ind-nature_2025/sequences/isi_16/len120/seq053_len120_tol0_s15_isi-1p0_0p0_16p0.json","11.1","true","5g0efzobl0q","","2580","https://mcdermottlab.mit.edu/mturk_stimuli/bjmedina/mem_exp_ind-nature_2025/mem_stim_23.wav","0","main","","","false","mem_stim_23.wav","false","-1","","1","correct_rejection"
"","","","","","html-keyboard-response","53","750668","0.0-10.0-1.11","https://mcdermottlab.mit.edu/mturk_stimuli/bjmedina/mem_exp_ind-nature_2025/sequences/isi_16/len120/seq053_len120_tol0_s15_isi-1p0_0p0_16p0.json","11.1","true","5g0efzobl0q","","null","<span style=""font-size: 40px"">+</span>","null","","","","","","","","","",""
"","","","","","audio-button-response","54","753750","0.0-10.0-2.11","https://mcdermottlab.mit.edu/mturk_stimuli/bjmedina/mem_exp_ind-nature_2025/sequences/isi_16/len120/seq053_len120_tol0_s15_isi-1p0_0p0_16p0.json","11.1","true","5g0efzobl0q","","2839","https://mcdermottlab.mit.edu/mturk_stimuli/bjmedina/mem_exp_ind-nature_2025/mem_stim_42.wav","0","main","","","false","mem_stim_42.wav","false","-1","","1","correct_rejection"
"","","","","","html-keyboard-response","55","753807","0.0-10.0-1.12","https://mcdermottlab.mit.edu/mturk_stimuli/bjmedina/mem_exp_ind-nature_2025/sequences/isi_16/len120/seq053_len120_tol0_s15_isi-1p0_0p0_16p0.json","11.1","true","5g0efzobl0q","","null","<span style=""font-size: 40px"">+</span>","null","","","","","","","","","",""
"","","","","","audio-button-response","56","757100","0.0-10.0-2.12","https://mcdermottlab.mit.edu/mturk_stimuli/bjmedina/mem_exp_ind-nature_2025/sequences/isi_16/len120/seq053_len120_tol0_s15_isi-1p0_0p0_16p0.json","11.1","true","5g0efzobl0q","","2569","https://mcdermottlab.mit.edu/mturk_stimuli/bjmedina/mem_exp_ind-nature_2025/mem_stim_7.wav","0","main","","","false","mem_stim_7.wav","false","-1","","1","correct_rejection"
"","","","","","html-keyboard-response","57","757167","0.0-10.0-1.13","https://mcdermottlab.mit.edu/mturk_stimuli/bjmedina/mem_exp_ind-nature_2025/sequences/isi_16/len120/seq053_len120_tol0_s15_isi-1p0_0p0_16p0.json","11.1","true","5g0efzobl0q","","null","<span style=""font-size: 40px"">+</span>","null","","","","","","","","","",""
"","","","","","audio-button-response","58","759642","0.0-10.0-2.13","https://mcdermottlab.mit.edu/mturk_stimuli/bjmedina/mem_exp_ind-nature_2025/sequences/isi_16/len120/seq053_len120_tol0_s15_isi-1p0_0p0_16p0.json","11.1","true","5g0efzobl0q","","2479","https://mcdermottlab.mit.edu/mturk_stimuli/bjmedina/mem_exp_ind-nature_2025/mem_stim_7.wav","3","main","","","true","mem_stim_7.wav","true","0","","0","miss"
"","","","","","html-keyboard-response","59","759699","0.0-10.0-1.14","https://mcdermottlab.mit.edu/mturk_stimuli/bjmedina/mem_exp_ind-nature_2025/sequences/isi_16/len120/seq053_len120_tol0_s15_isi-1p0_0p0_16p0.json","11.1","true","5g0efzobl0q","","null","<span style=""font-size: 40px"">+</span>","null","","","","","","","","","",""
"","","","","","audio-button-response","60","762982","0.0-10.0-2.14","https://mcdermottlab.mit.edu/mturk_stimuli/bjmedina/mem_exp_ind-nature_2025/sequences/isi_16/len120/seq053_len120_tol0_s15_isi-1p0_0p0_16p0.json","11.1","true","5g0efzobl0q","","3030","https://mcdermottlab.mit.edu/mturk_stimuli/bjmedina/mem_exp_ind-nature_2025/mem_stim_41.wav","0","main","","","false","mem_stim_41.wav","false","-1","","1","correct_rejection"
"","","","","","html-keyboard-response","61","763042","0.0-10.0-1.15","https://mcdermottlab.mit.edu/mturk_stimuli/bjmedina/mem_exp_ind-nature_2025/sequences/isi_16/len120/seq053_len120_tol0_s15_isi-1p0_0p0_16p0.json","11.1","true","5g0efzobl0q","","null","<span style=""font-size: 40px"">+</span>","null","","","","","","","","","",""
"","","","","","audio-button-response","62","765915","0.0-10.0-2.15","https://mcdermottlab.mit.edu/mturk_stimuli/bjmedina/mem_exp_ind-nature_2025/sequences/isi_16/len120/seq053_len120_tol0_s15_isi-1p0_0p0_16p0.json","11.1","true","5g0efzobl0q","","2592","https://mcdermottlab.mit.edu/mturk_stimuli/bjmedina/mem_exp_ind-nature_2025/mem_stim_10.wav","0","main","","","false","mem_stim_10.wav","false","-1","","1","correct_rejection"
"","","","","","html-keyboard-response","63","765978","0.0-10.0-1.16","https://mcdermottlab.mit.edu/mturk_stimuli/bjmedina/mem_exp_ind-nature_2025/sequences/isi_16/len120/seq053_len120_tol0_s15_isi-1p0_0p0_16p0.json","11.1","true","5g0efzobl0q","","null","<span style=""font-size: 40px"">+</span>","null","","","","","","","","","",""
"","","","","","audio-button-response","64","768749","0.0-10.0-2.16","https://mcdermottlab.mit.edu/mturk_stimuli/bjmedina/mem_exp_ind-nature_2025/sequences/isi_16/len120/seq053_len120_tol0_s15_isi-1p0_0p0_16p0.json","11.1","true","5g0efzobl0q","","2531","https://mcdermottlab.mit.edu/mturk_stimuli/bjmedina/mem_exp_ind-nature_2025/mem_stim_79.wav","0","main","","","false","mem_stim_79.wav","false","-1","","1","correct_rejection"
"","","","","","html-keyboard-response","65","768807","0.0-10.0-1.17","https://mcdermottlab.mit.edu/mturk_stimuli/bjmedina/mem_exp_ind-nature_2025/sequences/isi_16/len120/seq053_len120_tol0_s15_isi-1p0_0p0_16p0.json","11.1","true","5g0efzobl0q","","null","<span style=""font-size: 40px"">+</span>","null","","","","","","","","","",""
"","","","","","audio-button-response","66","771885","0.0-10.0-2.17","https://mcdermottlab.mit.edu/mturk_stimuli/bjmedina/mem_exp_ind-nature_2025/sequences/isi_16/len120/seq053_len120_tol0_s15_isi-1p0_0p0_16p0.json","11.1","true","5g0efzobl0q","","2630","https://mcdermottlab.mit.edu/mturk_stimuli/bjmedina/mem_exp_ind-nature_2025/mem_stim_78.wav","0","main","","","false","mem_stim_78.wav","false","-1","","1","correct_rejection"
"","","","","","html-keyboard-response","67","771943","0.0-10.0-1.18","https://mcdermottlab.mit.edu/mturk_stimuli/bjmedina/mem_exp_ind-nature_2025/sequences/isi_16/len120/seq053_len120_tol0_s15_isi-1p0_0p0_16p0.json","11.1","true","5g0efzobl0q","","null","<span style=""font-size: 40px"">+</span>","null","","","","","","","","","",""
"","","","","","audio-button-response","68","774694","0.0-10.0-2.18","https://mcdermottlab.mit.edu/mturk_stimuli/bjmedina/mem_exp_ind-nature_2025/sequences/isi_16/len120/seq053_len120_tol0_s15_isi-1p0_0p0_16p0.json","11.1","true","5g0efzobl0q","","2752","https://mcdermottlab.mit.edu/mturk_stimuli/bjmedina/mem_exp_ind-nature_2025/mem_stim_38.wav","3","main","","","true","mem_stim_38.wav","false","16","","0","miss"
"","","","","","html-keyboard-response","69","774750","0.0-10.0-1.19","https://mcdermottlab.mit.edu/mturk_stimuli/bjmedina/mem_exp_ind-nature_2025/sequences/isi_16/len120/seq053_len120_tol0_s15_isi-1p0_0p0_16p0.json","11.1","true","5g0efzobl0q","","null","<span style=""font-size: 40px"">+</span>","null","","","","","","","","","",""
"","","","","","audio-button-response","70","778302","0.0-10.0-2.19","https://mcdermottlab.mit.edu/mturk_stimuli/bjmedina/mem_exp_ind-nature_2025/sequences/isi_16/len120/seq053_len120_tol0_s15_isi-1p0_0p0_16p0.json","11.1","true","5g0efzobl0q","","3219","https://mcdermottlab.mit.edu/mturk_stimuli/bjmedina/mem_exp_ind-nature_2025/mem_stim_17.wav","0","main","","","false","mem_stim_17.wav","false","-1","","1","correct_rejection"
"","","","","","html-keyboard-response","71","778367","0.0-10.0-1.20","https://mcdermottlab.mit.edu/mturk_stimuli/bjmedina/mem_exp_ind-nature_2025/sequences/isi_16/len120/seq053_len120_tol0_s15_isi-1p0_0p0_16p0.json","11.1","true","5g0efzobl0q","","null","<span style=""font-size: 40px"">+</span>","null","","","","","","","","","",""
"","","","","","audio-button-response","72","781157","0.0-10.0-2.20","https://mcdermottlab.mit.edu/mturk_stimuli/bjmedina/mem_exp_ind-nature_2025/sequences/isi_16/len120/seq053_len120_tol0_s15_isi-1p0_0p0_16p0.json","11.1","true","5g0efzobl0q","","2589","https://mcdermottlab.mit.edu/mturk_stimuli/bjmedina/mem_exp_ind-nature_2025/mem_stim_29.wav","0","main","","","false","mem_stim_29.wav","false","-1","","1","correct_rejection"
"","","","","","html-keyboard-response","73","781212","0.0-10.0-1.21","https://mcdermottlab.mit.edu/mturk_stimuli/bjmedina/mem_exp_ind-nature_2025/sequences/isi_16/len120/seq053_len120_tol0_s15_isi-1p0_0p0_16p0.json","11.1","true","5g0efzobl0q","","null","<span style=""font-size: 40px"">+</span>","null","","","","","","","","","",""
"","","","","","audio-button-response","74","784462","0.0-10.0-2.21","https://mcdermottlab.mit.edu/mturk_stimuli/bjmedina/mem_exp_ind-nature_2025/sequences/isi_16/len120/seq053_len120_tol0_s15_isi-1p0_0p0_16p0.json","11.1","true","5g0efzobl0q","","2740","https://mcdermottlab.mit.edu/mturk_stimuli/bjmedina/mem_exp_ind-nature_2025/mem_stim_75.wav","3","main","","","false","mem_stim_75.wav","false","-1","","1","correct_rejection"
"","","","","","html-keyboard-response","75","784523","0.0-10.0-1.22","https://mcdermottlab.mit.edu/mturk_stimuli/bjmedina/mem_exp_ind-nature_2025/sequences/isi_16/len120/seq053_len120_tol0_s15_isi-1p0_0p0_16p0.json","11.1","true","5g0efzobl0q","","null","<span style=""font-size: 40px"">+</span>","null","","","","","","","","","",""
"","","","","","audio-button-response","76","787505","0.0-10.0-2.22","https://mcdermottlab.mit.edu/mturk_stimuli/bjmedina/mem_exp_ind-nature_2025/sequences/isi_16/len120/seq053_len120_tol0_s15_isi-1p0_0p0_16p0.json","11.1","true","5g0efzobl0q","","2981","https://mcdermottlab.mit.edu/mturk_stimuli/bjmedina/mem_exp_ind-nature_2025/mem_stim_21.wav","2","main","","","true","mem_stim_21.wav","false","16","","0","miss"
"","","","","","html-keyboard-response","77","787560","0.0-10.0-1.23","https://mcdermottlab.mit.edu/mturk_stimuli/bjmedina/mem_exp_ind-nature_2025/sequences/isi_16/len120/seq053_len120_tol0_s15_isi-1p0_0p0_16p0.json","11.1","true","5g0efzobl0q","","null","<span style=""font-size: 40px"">+</span>","null","","","","","","","","","",""
"","","","","","audio-button-response","78","790080","0.0-10.0-2.23","https://mcdermottlab.mit.edu/mturk_stimuli/bjmedina/mem_exp_ind-nature_2025/sequences/isi_16/len120/seq053_len120_tol0_s15_isi-1p0_0p0_16p0.json","11.1","true","5g0efzobl0q","","2508","https://mcdermottlab.mit.edu/mturk_stimuli/bjmedina/mem_exp_ind-nature_2025/mem_stim_19.wav","3","main","","","true","mem_stim_19.wav","false","16","","0","miss"
"","","","","","html-keyboard-response","79","790148","0.0-10.0-1.24","https://mcdermottlab.mit.edu/mturk_stimuli/bjmedina/mem_exp_ind-nature_2025/sequences/isi_16/len120/seq053_len120_tol0_s15_isi-1p0_0p0_16p0.json","11.1","true","5g0efzobl0q","","null","<span style=""font-size: 40px"">+</span>","null","","","","","","","","","",""
"","","","","","audio-button-response","80","792653","0.0-10.0-2.24","https://mcdermottlab.mit.edu/mturk_stimuli/bjmedina/mem_exp_ind-nature_2025/sequences/isi_16/len120/seq053_len120_tol0_s15_isi-1p0_0p0_16p0.json","11.1","true","5g0efzobl0q","","2508","https://mcdermottlab.mit.edu/mturk_stimuli/bjmedina/mem_exp_ind-nature_2025/mem_stim_16.wav","2","main","","","true","mem_stim_16.wav","false","16","","0","miss"
"","","","","","html-keyboard-response","81","792713","0.0-10.0-1.25","https://mcdermottlab.mit.edu/mturk_stimuli/bjmedina/mem_exp_ind-nature_2025/sequences/isi_16/len120/seq053_len120_tol0_s15_isi-1p0_0p0_16p0.json","11.1","true","5g0efzobl0q","","null","<span style=""font-size: 40px"">+</span>","null","","","","","","","","","",""
"","","","","","audio-button-response","82","795551","0.0-10.0-2.25","https://mcdermottlab.mit.edu/mturk_stimuli/bjmedina/mem_exp_ind-nature_2025/sequences/isi_16/len120/seq053_len120_tol0_s15_isi-1p0_0p0_16p0.json","11.1","true","5g0efzobl0q","","2531","https://mcdermottlab.mit.edu/mturk_stimuli/bjmedina/mem_exp_ind-nature_2025/mem_stim_68.wav","0","main","","","false","mem_stim_68.wav","false","-1","","1","correct_rejection"
"","","","","","html-keyboard-response","83","795614","0.0-10.0-1.26","https://mcdermottlab.mit.edu/mturk_stimuli/bjmedina/mem_exp_ind-nature_2025/sequences/isi_16/len120/seq053_len120_tol0_s15_isi-1p0_0p0_16p0.json","11.1","true","5g0efzobl0q","","null","<span style=""font-size: 40px"">+</span>","null","","","","","","","","","",""
"","","","","","audio-button-response","84","800038","0.0-10.0-2.26","https://mcdermottlab.mit.edu/mturk_stimuli/bjmedina/mem_exp_ind-nature_2025/sequences/isi_16/len120/seq053_len120_tol0_s15_isi-1p0_0p0_16p0.json","11.1","true","5g0efzobl0q","","4191","https://mcdermottlab.mit.edu/mturk_stimuli/bjmedina/mem_exp_ind-nature_2025/mem_stim_39.wav","0","main","","","false","mem_stim_39.wav","false","-1","","1","correct_rejection"
"","","","","","html-keyboard-response","85","800095","0.0-10.0-1.27","https://mcdermottlab.mit.edu/mturk_stimuli/bjmedina/mem_exp_ind-nature_2025/sequences/isi_16/len120/seq053_len120_tol0_s15_isi-1p0_0p0_16p0.json","11.1","true","5g0efzobl0q","","null","<span style=""font-size: 40px"">+</span>","null","","","","","","","","","",""
"","","","","","audio-button-response","86","802765","0.0-10.0-2.27","https://mcdermottlab.mit.edu/mturk_stimuli/bjmedina/mem_exp_ind-nature_2025/sequences/isi_16/len120/seq053_len120_tol0_s15_isi-1p0_0p0_16p0.json","11.1","true","5g0efzobl0q","","2670","https://mcdermottlab.mit.edu/mturk_stimuli/bjmedina/mem_exp_ind-nature_2025/mem_stim_23.wav","1","main","","","true","mem_stim_23.wav","false","16","","1","hit"
"","","","","","html-keyboard-response","87","802833","0.0-10.0-1.28","https://mcdermottlab.mit.edu/mturk_stimuli/bjmedina/mem_exp_ind-nature_2025/sequences/isi_16/len120/seq053_len120_tol0_s15_isi-1p0_0p0_16p0.json","11.1","true","5g0efzobl0q","","null","<span style=""font-size: 40px"">+</span>","null","","","","","","","","","",""
"","","","","","audio-button-response","88","805628","0.0-10.0-2.28","https://mcdermottlab.mit.edu/mturk_stimuli/bjmedina/mem_exp_ind-nature_2025/sequences/isi_16/len120/seq053_len120_tol0_s15_isi-1p0_0p0_16p0.json","11.1","true","5g0efzobl0q","","2540","https://mcdermottlab.mit.edu/mturk_stimuli/bjmedina/mem_exp_ind-nature_2025/mem_stim_3.wav","0","main","","","false","mem_stim_3.wav","false","-1","","1","correct_rejection"
"","","","","","html-keyboard-response","89","805697","0.0-10.0-1.29","https://mcdermottlab.mit.edu/mturk_stimuli/bjmedina/mem_exp_ind-nature_2025/sequences/isi_16/len120/seq053_len120_tol0_s15_isi-1p0_0p0_16p0.json","11.1","true","5g0efzobl0q","","null","<span style=""font-size: 40px"">+</span>","null","","","","","","","","","",""
"","","","","","audio-button-response","90","807924","0.0-10.0-2.29","https://mcdermottlab.mit.edu/mturk_stimuli/bjmedina/mem_exp_ind-nature_2025/sequences/isi_16/len120/seq053_len120_tol0_s15_isi-1p0_0p0_16p0.json","11.1","true","5g0efzobl0q","","2229","https://mcdermottlab.mit.edu/mturk_stimuli/bjmedina/mem_exp_ind-nature_2025/mem_stim_3.wav","3","main","","","true","mem_stim_3.wav","true","0","","0","miss"
"","","","","","html-keyboard-response","91","807988","0.0-10.0-1.30","https://mcdermottlab.mit.edu/mturk_stimuli/bjmedina/mem_exp_ind-nature_2025/sequences/isi_16/len120/seq053_len120_tol0_s15_isi-1p0_0p0_16p0.json","11.1","true","5g0efzobl0q","","null","<span style=""font-size: 40px"">+</span>","null","","","","","","","","","",""
"","","","","","audio-button-response","92","810478","0.0-10.0-2.30","https://mcdermottlab.mit.edu/mturk_stimuli/bjmedina/mem_exp_ind-nature_2025/sequences/isi_16/len120/seq053_len120_tol0_s15_isi-1p0_0p0_16p0.json","11.1","true","5g0efzobl0q","","2200","https://mcdermottlab.mit.edu/mturk_stimuli/bjmedina/mem_exp_ind-nature_2025/mem_stim_32.wav","0","main","","","false","mem_stim_32.wav","false","-1","","1","correct_rejection"
"","","","","","html-keyboard-response","93","810547","0.0-10.0-1.31","https://mcdermottlab.mit.edu/mturk_stimuli/bjmedina/mem_exp_ind-nature_2025/sequences/isi_16/len120/seq053_len120_tol0_s15_isi-1p0_0p0_16p0.json","11.1","true","5g0efzobl0q","","null","<span style=""font-size: 40px"">+</span>","null","","","","","","","","","",""
"","","","","","audio-button-response","94","813118","0.0-10.0-2.31","https://mcdermottlab.mit.edu/mturk_stimuli/bjmedina/mem_exp_ind-nature_2025/sequences/isi_16/len120/seq053_len120_tol0_s15_isi-1p0_0p0_16p0.json","11.1","true","5g0efzobl0q","","2319","https://mcdermottlab.mit.edu/mturk_stimuli/bjmedina/mem_exp_ind-nature_2025/mem_stim_61.wav","0","main","","","false","mem_stim_61.wav","false","-1","","1","correct_rejection"
"","","","","","html-keyboard-response","95","813178","0.0-10.0-1.32","https://mcdermottlab.mit.edu/mturk_stimuli/bjmedina/mem_exp_ind-nature_2025/sequences/isi_16/len120/seq053_len120_tol0_s15_isi-1p0_0p0_16p0.json","11.1","true","5g0efzobl0q","","null","<span style=""font-size: 40px"">+</span>","null","","","","","","","","","",""
"","","","","","audio-button-response","96","815746","0.0-10.0-2.32","https://mcdermottlab.mit.edu/mturk_stimuli/bjmedina/mem_exp_ind-nature_2025/sequences/isi_16/len120/seq053_len120_tol0_s15_isi-1p0_0p0_16p0.json","11.1","true","5g0efzobl0q","","2572","https://mcdermottlab.mit.edu/mturk_stimuli/bjmedina/mem_exp_ind-nature_2025/mem_stim_10.wav","2","main","","","true","mem_stim_10.wav","false","16","","0","miss"
"","","","","","html-keyboard-response","97","815808","0.0-10.0-1.33","https://mcdermottlab.mit.edu/mturk_stimuli/bjmedina/mem_exp_ind-nature_2025/sequences/isi_16/len120/seq053_len120_tol0_s15_isi-1p0_0p0_16p0.json","11.1","true","5g0efzobl0q","","null","<span style=""font-size: 40px"">+</span>","null","","","","","","","","","",""
"","","","","","audio-button-response","98","818554","0.0-10.0-2.33","https://mcdermottlab.mit.edu/mturk_stimuli/bjmedina/mem_exp_ind-nature_2025/sequences/isi_16/len120/seq053_len120_tol0_s15_isi-1p0_0p0_16p0.json","11.1","true","5g0efzobl0q","","2461","https://mcdermottlab.mit.edu/mturk_stimuli/bjmedina/mem_exp_ind-nature_2025/mem_stim_20.wav","0","main","","","false","mem_stim_20.wav","false","-1","","1","correct_rejection"
"","","","","","html-keyboard-response","99","818611","0.0-10.0-1.34","https://mcdermottlab.mit.edu/mturk_stimuli/bjmedina/mem_exp_ind-nature_2025/sequences/isi_16/len120/seq053_len120_tol0_s15_isi-1p0_0p0_16p0.json","11.1","true","5g0efzobl0q","","null","<span style=""font-size: 40px"">+</span>","null","","","","","","","","","",""
"","","","","","audio-button-response","100","821519","0.0-10.0-2.34","https://mcdermottlab.mit.edu/mturk_stimuli/bjmedina/mem_exp_ind-nature_2025/sequences/isi_16/len120/seq053_len120_tol0_s15_isi-1p0_0p0_16p0.json","11.1","true","5g0efzobl0q","","2630","https://mcdermottlab.mit.edu/mturk_stimuli/bjmedina/mem_exp_ind-nature_2025/mem_stim_25.wav","0","main","","","false","mem_stim_25.wav","false","-1","","1","correct_rejection"
"","","","","","html-keyboard-response","101","821576","0.0-10.0-1.35","https://mcdermottlab.mit.edu/mturk_stimuli/bjmedina/mem_exp_ind-nature_2025/sequences/isi_16/len120/seq053_len120_tol0_s15_isi-1p0_0p0_16p0.json","11.1","true","5g0efzobl0q","","null","<span style=""font-size: 40px"">+</span>","null","","","","","","","","","",""
"","","","","","audio-button-response","102","827711","0.0-10.0-2.35","https://mcdermottlab.mit.edu/mturk_stimuli/bjmedina/mem_exp_ind-nature_2025/sequences/isi_16/len120/seq053_len120_tol0_s15_isi-1p0_0p0_16p0.json","11.1","true","5g0efzobl0q","","5721","https://mcdermottlab.mit.edu/mturk_stimuli/bjmedina/mem_exp_ind-nature_2025/mem_stim_59.wav","0","main","","","false","mem_stim_59.wav","false","-1","","1","correct_rejection"
"","","","","","html-keyboard-response","103","827770","0.0-10.0-1.36","https://mcdermottlab.mit.edu/mturk_stimuli/bjmedina/mem_exp_ind-nature_2025/sequences/isi_16/len120/seq053_len120_tol0_s15_isi-1p0_0p0_16p0.json","11.1","true","5g0efzobl0q","","null","<span style=""font-size: 40px"">+</span>","null","","","","","","","","","",""
"","","","","","audio-button-response","104","836376","0.0-10.0-2.36","https://mcdermottlab.mit.edu/mturk_stimuli/bjmedina/mem_exp_ind-nature_2025/sequences/isi_16/len120/seq053_len120_tol0_s15_isi-1p0_0p0_16p0.json","11.1","true","5g0efzobl0q","","8609","https://mcdermottlab.mit.edu/mturk_stimuli/bjmedina/mem_exp_ind-nature_2025/mem_stim_17.wav","3","main","","","true","mem_stim_17.wav","false","16","","0","miss"
"","","","","","html-keyboard-response","105","836433","0.0-10.0-1.37","https://mcdermottlab.mit.edu/mturk_stimuli/bjmedina/mem_exp_ind-nature_2025/sequences/isi_16/len120/seq053_len120_tol0_s15_isi-1p0_0p0_16p0.json","11.1","true","5g0efzobl0q","","null","<span style=""font-size: 40px"">+</span>","null","","","","","","","","","",""
"","","","","","audio-button-response","106","839767","0.0-10.0-2.37","https://mcdermottlab.mit.edu/mturk_stimuli/bjmedina/mem_exp_ind-nature_2025/sequences/isi_16/len120/seq053_len120_tol0_s15_isi-1p0_0p0_16p0.json","11.1","true","5g0efzobl0q","","3329","https://mcdermottlab.mit.edu/mturk_stimuli/bjmedina/mem_exp_ind-nature_2025/mem_stim_29.wav","2","main","","","true","mem_stim_29.wav","false","16","","0","miss"
"","","","","","html-keyboard-response","107","839831","0.0-10.0-1.38","https://mcdermottlab.mit.edu/mturk_stimuli/bjmedina/mem_exp_ind-nature_2025/sequences/isi_16/len120/seq053_len120_tol0_s15_isi-1p0_0p0_16p0.json","11.1","true","5g0efzobl0q","","null","<span style=""font-size: 40px"">+</span>","null","","","","","","","","","",""
"","","","","","audio-button-response","108","842757","0.0-10.0-2.38","https://mcdermottlab.mit.edu/mturk_stimuli/bjmedina/mem_exp_ind-nature_2025/sequences/isi_16/len120/seq053_len120_tol0_s15_isi-1p0_0p0_16p0.json","11.1","true","5g0efzobl0q","","2618","https://mcdermottlab.mit.edu/mturk_stimuli/bjmedina/mem_exp_ind-nature_2025/mem_stim_2.wav","0","main","","","false","mem_stim_2.wav","false","-1","","1","correct_rejection"
"","","","","","html-keyboard-response","109","842820","0.0-10.0-1.39","https://mcdermottlab.mit.edu/mturk_stimuli/bjmedina/mem_exp_ind-nature_2025/sequences/isi_16/len120/seq053_len120_tol0_s15_isi-1p0_0p0_16p0.json","11.1","true","5g0efzobl0q","","null","<span style=""font-size: 40px"">+</span>","null","","","","","","","","","",""
"","","","","","audio-button-response","110","845089","0.0-10.0-2.39","https://mcdermottlab.mit.edu/mturk_stimuli/bjmedina/mem_exp_ind-nature_2025/sequences/isi_16/len120/seq053_len120_tol0_s15_isi-1p0_0p0_16p0.json","11.1","true","5g0efzobl0q","","2261","https://mcdermottlab.mit.edu/mturk_stimuli/bjmedina/mem_exp_ind-nature_2025/mem_stim_2.wav","3","main","","","true","mem_stim_2.wav","true","0","","0","miss"
"","","","","","html-keyboard-response","111","845149","0.0-10.0-1.40","https://mcdermottlab.mit.edu/mturk_stimuli/bjmedina/mem_exp_ind-nature_2025/sequences/isi_16/len120/seq053_len120_tol0_s15_isi-1p0_0p0_16p0.json","11.1","true","5g0efzobl0q","","null","<span style=""font-size: 40px"">+</span>","null","","","","","","","","","",""
"","","","","","audio-button-response","112","849237","0.0-10.0-2.40","https://mcdermottlab.mit.edu/mturk_stimuli/bjmedina/mem_exp_ind-nature_2025/sequences/isi_16/len120/seq053_len120_tol0_s15_isi-1p0_0p0_16p0.json","11.1","true","5g0efzobl0q","","3831","https://mcdermottlab.mit.edu/mturk_stimuli/bjmedina/mem_exp_ind-nature_2025/mem_stim_66.wav","1","main","","","false","mem_stim_66.wav","false","-1","","0","false_alarm"
"","","","","","html-keyboard-response","113","849302","0.0-10.0-1.41","https://mcdermottlab.mit.edu/mturk_stimuli/bjmedina/mem_exp_ind-nature_2025/sequences/isi_16/len120/seq053_len120_tol0_s15_isi-1p0_0p0_16p0.json","11.1","true","5g0efzobl0q","","null","<span style=""font-size: 40px"">+</span>","null","","","","","","","","","",""
"","","","","","audio-button-response","114","852267","0.0-10.0-2.41","https://mcdermottlab.mit.edu/mturk_stimuli/bjmedina/mem_exp_ind-nature_2025/sequences/isi_16/len120/seq053_len120_tol0_s15_isi-1p0_0p0_16p0.json","11.1","true","5g0efzobl0q","","2699","https://mcdermottlab.mit.edu/mturk_stimuli/bjmedina/mem_exp_ind-nature_2025/mem_stim_28.wav","0","main","","","false","mem_stim_28.wav","false","-1","","1","correct_rejection"
"","","","","","html-keyboard-response","115","852326","0.0-10.0-1.42","https://mcdermottlab.mit.edu/mturk_stimuli/bjmedina/mem_exp_ind-nature_2025/sequences/isi_16/len120/seq053_len120_tol0_s15_isi-1p0_0p0_16p0.json","11.1","true","5g0efzobl0q","","null","<span style=""font-size: 40px"">+</span>","null","","","","","","","","","",""
"","","","","","audio-button-response","116","856457","0.0-10.0-2.42","https://mcdermottlab.mit.edu/mturk_stimuli/bjmedina/mem_exp_ind-nature_2025/sequences/isi_16/len120/seq053_len120_tol0_s15_isi-1p0_0p0_16p0.json","11.1","true","5g0efzobl0q","","3849","https://mcdermottlab.mit.edu/mturk_stimuli/bjmedina/mem_exp_ind-nature_2025/mem_stim_60.wav","2","main","","","false","mem_stim_60.wav","false","-1","","1","correct_rejection"
"","","","","","html-keyboard-response","117","856518","0.0-10.0-1.43","https://mcdermottlab.mit.edu/mturk_stimuli/bjmedina/mem_exp_ind-nature_2025/sequences/isi_16/len120/seq053_len120_tol0_s15_isi-1p0_0p0_16p0.json","11.1","true","5g0efzobl0q","","null","<span style=""font-size: 40px"">+</span>","null","","","","","","","","","",""
"","","","","","audio-button-response","118","868241","0.0-10.0-2.43","https://mcdermottlab.mit.edu/mturk_stimuli/bjmedina/mem_exp_ind-nature_2025/sequences/isi_16/len120/seq053_len120_tol0_s15_isi-1p0_0p0_16p0.json","11.1","true","5g0efzobl0q","","11720","https://mcdermottlab.mit.edu/mturk_stimuli/bjmedina/mem_exp_ind-nature_2025/mem_stim_39.wav","1","main","","","true","mem_stim_39.wav","false","16","","1","hit"
"","","","","","html-keyboard-response","119","868304","0.0-10.0-1.44","https://mcdermottlab.mit.edu/mturk_stimuli/bjmedina/mem_exp_ind-nature_2025/sequences/isi_16/len120/seq053_len120_tol0_s15_isi-1p0_0p0_16p0.json","11.1","true","5g0efzobl0q","","null","<span style=""font-size: 40px"">+</span>","null","","","","","","","","","",""
"","","","","","audio-button-response","120","874327","0.0-10.0-2.44","https://mcdermottlab.mit.edu/mturk_stimuli/bjmedina/mem_exp_ind-nature_2025/sequences/isi_16/len120/seq053_len120_tol0_s15_isi-1p0_0p0_16p0.json","11.1","true","5g0efzobl0q","","5550","https://mcdermottlab.mit.edu/mturk_stimuli/bjmedina/mem_exp_ind-nature_2025/mem_stim_73.wav","1","main","","","false","mem_stim_73.wav","false","-1","","0","false_alarm"
"","","","","","html-keyboard-response","121","874385","0.0-10.0-1.45","https://mcdermottlab.mit.edu/mturk_stimuli/bjmedina/mem_exp_ind-nature_2025/sequences/isi_16/len120/seq053_len120_tol0_s15_isi-1p0_0p0_16p0.json","11.1","true","5g0efzobl0q","","null","<span style=""font-size: 40px"">+</span>","null","","","","","","","","","",""
"","","","","","audio-button-response","122","877892","0.0-10.0-2.45","https://mcdermottlab.mit.edu/mturk_stimuli/bjmedina/mem_exp_ind-nature_2025/sequences/isi_16/len120/seq053_len120_tol0_s15_isi-1p0_0p0_16p0.json","11.1","true","5g0efzobl0q","","3071","https://mcdermottlab.mit.edu/mturk_stimuli/bjmedina/mem_exp_ind-nature_2025/mem_stim_54.wav","0","main","","","false","mem_stim_54.wav","false","-1","","1","correct_rejection"
"","","","","","html-keyboard-response","123","877957","0.0-10.0-1.46","https://mcdermottlab.mit.edu/mturk_stimuli/bjmedina/mem_exp_ind-nature_2025/sequences/isi_16/len120/seq053_len120_tol0_s15_isi-1p0_0p0_16p0.json","11.1","true","5g0efzobl0q","","null","<span style=""font-size: 40px"">+</span>","null","","","","","","","","","",""
"","","","","","audio-button-response","124","880976","0.0-10.0-2.46","https://mcdermottlab.mit.edu/mturk_stimuli/bjmedina/mem_exp_ind-nature_2025/sequences/isi_16/len120/seq053_len120_tol0_s15_isi-1p0_0p0_16p0.json","11.1","true","5g0efzobl0q","","2760","https://mcdermottlab.mit.edu/mturk_stimuli/bjmedina/mem_exp_ind-nature_2025/mem_stim_44.wav","0","main","","","false","mem_stim_44.wav","false","-1","","1","correct_rejection"
"","","","","","html-keyboard-response","125","881035","0.0-10.0-1.47","https://mcdermottlab.mit.edu/mturk_stimuli/bjmedina/mem_exp_ind-nature_2025/sequences/isi_16/len120/seq053_len120_tol0_s15_isi-1p0_0p0_16p0.json","11.1","true","5g0efzobl0q","","null","<span style=""font-size: 40px"">+</span>","null","","","","","","","","","",""
"","","","","","audio-button-response","126","883614","0.0-10.0-2.47","https://mcdermottlab.mit.edu/mturk_stimuli/bjmedina/mem_exp_ind-nature_2025/sequences/isi_16/len120/seq053_len120_tol0_s15_isi-1p0_0p0_16p0.json","11.1","true","5g0efzobl0q","","2580","https://mcdermottlab.mit.edu/mturk_stimuli/bjmedina/mem_exp_ind-nature_2025/mem_stim_32.wav","3","main","","","true","mem_stim_32.wav","false","16","","0","miss"
"","","","","","html-keyboard-response","127","883681","0.0-10.0-1.48","https://mcdermottlab.mit.edu/mturk_stimuli/bjmedina/mem_exp_ind-nature_2025/sequences/isi_16/len120/seq053_len120_tol0_s15_isi-1p0_0p0_16p0.json","11.1","true","5g0efzobl0q","","null","<span style=""font-size: 40px"">+</span>","null","","","","","","","","","",""
"","","","","","audio-button-response","128","886753","0.0-10.0-2.48","https://mcdermottlab.mit.edu/mturk_stimuli/bjmedina/mem_exp_ind-nature_2025/sequences/isi_16/len120/seq053_len120_tol0_s15_isi-1p0_0p0_16p0.json","11.1","true","5g0efzobl0q","","2830","https://mcdermottlab.mit.edu/mturk_stimuli/bjmedina/mem_exp_ind-nature_2025/mem_stim_11.wav","1","main","","","false","mem_stim_11.wav","false","-1","","0","false_alarm"
"","","","","","html-keyboard-response","129","886809","0.0-10.0-1.49","https://mcdermottlab.mit.edu/mturk_stimuli/bjmedina/mem_exp_ind-nature_2025/sequences/isi_16/len120/seq053_len120_tol0_s15_isi-1p0_0p0_16p0.json","11.1","true","5g0efzobl0q","","null","<span style=""font-size: 40px"">+</span>","null","","","","","","","","","",""
"","","","","","audio-button-response","130","889795","0.0-10.0-2.49","https://mcdermottlab.mit.edu/mturk_stimuli/bjmedina/mem_exp_ind-nature_2025/sequences/isi_16/len120/seq053_len120_tol0_s15_isi-1p0_0p0_16p0.json","11.1","true","5g0efzobl0q","","2679","https://mcdermottlab.mit.edu/mturk_stimuli/bjmedina/mem_exp_ind-nature_2025/mem_stim_45.wav","2","main","","","false","mem_stim_45.wav","false","-1","","1","correct_rejection"
"","","","","","html-keyboard-response","131","889854","0.0-10.0-1.50","https://mcdermottlab.mit.edu/mturk_stimuli/bjmedina/mem_exp_ind-nature_2025/sequences/isi_16/len120/seq053_len120_tol0_s15_isi-1p0_0p0_16p0.json","11.1","true","5g0efzobl0q","","null","<span style=""font-size: 40px"">+</span>","null","","","","","","","","","",""
"","","","","","audio-button-response","132","891972","0.0-10.0-2.50","https://mcdermottlab.mit.edu/mturk_stimuli/bjmedina/mem_exp_ind-nature_2025/sequences/isi_16/len120/seq053_len120_tol0_s15_isi-1p0_0p0_16p0.json","11.1","true","5g0efzobl0q","","2119","https://mcdermottlab.mit.edu/mturk_stimuli/bjmedina/mem_exp_ind-nature_2025/mem_stim_20.wav","2","main","","","true","mem_stim_20.wav","false","16","","0","miss"
"","","","","","html-keyboard-response","133","892028","0.0-10.0-1.51","https://mcdermottlab.mit.edu/mturk_stimuli/bjmedina/mem_exp_ind-nature_2025/sequences/isi_16/len120/seq053_len120_tol0_s15_isi-1p0_0p0_16p0.json","11.1","true","5g0efzobl0q","","null","<span style=""font-size: 40px"">+</span>","null","","","","","","","","","",""
"","","","","","audio-button-response","134","894685","0.0-10.0-2.51","https://mcdermottlab.mit.edu/mturk_stimuli/bjmedina/mem_exp_ind-nature_2025/sequences/isi_16/len120/seq053_len120_tol0_s15_isi-1p0_0p0_16p0.json","11.1","true","5g0efzobl0q","","2662","https://mcdermottlab.mit.edu/mturk_stimuli/bjmedina/mem_exp_ind-nature_2025/mem_stim_25.wav","3","main","","","true","mem_stim_25.wav","false","16","","0","miss"
"","","","","","html-keyboard-response","135","894745","0.0-10.0-1.52","https://mcdermottlab.mit.edu/mturk_stimuli/bjmedina/mem_exp_ind-nature_2025/sequences/isi_16/len120/seq053_len120_tol0_s15_isi-1p0_0p0_16p0.json","11.1","true","5g0efzobl0q","","null","<span style=""font-size: 40px"">+</span>","null","","","","","","","","","",""
"","","","","","audio-button-response","136","897962","0.0-10.0-2.52","https://mcdermottlab.mit.edu/mturk_stimuli/bjmedina/mem_exp_ind-nature_2025/sequences/isi_16/len120/seq053_len120_tol0_s15_isi-1p0_0p0_16p0.json","11.1","true","5g0efzobl0q","","2531","https://mcdermottlab.mit.edu/mturk_stimuli/bjmedina/mem_exp_ind-nature_2025/mem_stim_48.wav","0","main","","","false","mem_stim_48.wav","false","-1","","1","correct_rejection"
"","","","","","html-keyboard-response","137","898026","0.0-10.0-1.53","https://mcdermottlab.mit.edu/mturk_stimuli/bjmedina/mem_exp_ind-nature_2025/sequences/isi_16/len120/seq053_len120_tol0_s15_isi-1p0_0p0_16p0.json","11.1","true","5g0efzobl0q","","null","<span style=""font-size: 40px"">+</span>","null","","","","","","","","","",""
"","","","","","audio-button-response","138","900626","0.0-10.0-2.53","https://mcdermottlab.mit.edu/mturk_stimuli/bjmedina/mem_exp_ind-nature_2025/sequences/isi_16/len120/seq053_len120_tol0_s15_isi-1p0_0p0_16p0.json","11.1","true","5g0efzobl0q","","2400","https://mcdermottlab.mit.edu/mturk_stimuli/bjmedina/mem_exp_ind-nature_2025/mem_stim_71.wav","0","main","","","false","mem_stim_71.wav","false","-1","","1","correct_rejection"
"","","","","","html-keyboard-response","139","900691","0.0-10.0-1.54","https://mcdermottlab.mit.edu/mturk_stimuli/bjmedina/mem_exp_ind-nature_2025/sequences/isi_16/len120/seq053_len120_tol0_s15_isi-1p0_0p0_16p0.json","11.1","true","5g0efzobl0q","","null","<span style=""font-size: 40px"">+</span>","null","","","","","","","","","",""
"","","","","","audio-button-response","140","904168","0.0-10.0-2.54","https://mcdermottlab.mit.edu/mturk_stimuli/bjmedina/mem_exp_ind-nature_2025/sequences/isi_16/len120/seq053_len120_tol0_s15_isi-1p0_0p0_16p0.json","11.1","true","5g0efzobl0q","","2519","https://mcdermottlab.mit.edu/mturk_stimuli/bjmedina/mem_exp_ind-nature_2025/mem_stim_26.wav","0","main","","","false","mem_stim_26.wav","false","-1","","1","correct_rejection"
"","","","","","html-keyboard-response","141","904235","0.0-10.0-1.55","https://mcdermottlab.mit.edu/mturk_stimuli/bjmedina/mem_exp_ind-nature_2025/sequences/isi_16/len120/seq053_len120_tol0_s15_isi-1p0_0p0_16p0.json","11.1","true","5g0efzobl0q","","null","<span style=""font-size: 40px"">+</span>","null","","","","","","","","","",""
"","","","","","audio-button-response","142","907002","0.0-10.0-2.55","https://mcdermottlab.mit.edu/mturk_stimuli/bjmedina/mem_exp_ind-nature_2025/sequences/isi_16/len120/seq053_len120_tol0_s15_isi-1p0_0p0_16p0.json","11.1","true","5g0efzobl0q","","2511","https://mcdermottlab.mit.edu/mturk_stimuli/bjmedina/mem_exp_ind-nature_2025/mem_stim_36.wav","0","main","","","false","mem_stim_36.wav","false","-1","","1","correct_rejection"
"","","","","","html-keyboard-response","143","907065","0.0-10.0-1.56","https://mcdermottlab.mit.edu/mturk_stimuli/bjmedina/mem_exp_ind-nature_2025/sequences/isi_16/len120/seq053_len120_tol0_s15_isi-1p0_0p0_16p0.json","11.1","true","5g0efzobl0q","","null","<span style=""font-size: 40px"">+</span>","null","","","","","","","","","",""
"","","","","","audio-button-response","144","909594","0.0-10.0-2.56","https://mcdermottlab.mit.edu/mturk_stimuli/bjmedina/mem_exp_ind-nature_2025/sequences/isi_16/len120/seq053_len120_tol0_s15_isi-1p0_0p0_16p0.json","11.1","true","5g0efzobl0q","","2261","https://mcdermottlab.mit.edu/mturk_stimuli/bjmedina/mem_exp_ind-nature_2025/mem_stim_13.wav","0","main","","","false","mem_stim_13.wav","false","-1","","1","correct_rejection"
"","","","","","html-keyboard-response","145","909663","0.0-10.0-1.57","https://mcdermottlab.mit.edu/mturk_stimuli/bjmedina/mem_exp_ind-nature_2025/sequences/isi_16/len120/seq053_len120_tol0_s15_isi-1p0_0p0_16p0.json","11.1","true","5g0efzobl0q","","null","<span style=""font-size: 40px"">+</span>","null","","","","","","","","","",""
"","","","","","audio-button-response","146","912639","0.0-10.0-2.57","https://mcdermottlab.mit.edu/mturk_stimuli/bjmedina/mem_exp_ind-nature_2025/sequences/isi_16/len120/seq053_len120_tol0_s15_isi-1p0_0p0_16p0.json","11.1","true","5g0efzobl0q","","2360","https://mcdermottlab.mit.edu/mturk_stimuli/bjmedina/mem_exp_ind-nature_2025/mem_stim_57.wav","0","main","","","false","mem_stim_57.wav","false","-1","","1","correct_rejection"
"","","","","","html-keyboard-response","147","912706","0.0-10.0-1.58","https://mcdermottlab.mit.edu/mturk_stimuli/bjmedina/mem_exp_ind-nature_2025/sequences/isi_16/len120/seq053_len120_tol0_s15_isi-1p0_0p0_16p0.json","11.1","true","5g0efzobl0q","","null","<span style=""font-size: 40px"">+</span>","null","","","","","","","","","",""
"","","","","","audio-button-response","148","915020","0.0-10.0-2.58","https://mcdermottlab.mit.edu/mturk_stimuli/bjmedina/mem_exp_ind-nature_2025/sequences/isi_16/len120/seq053_len120_tol0_s15_isi-1p0_0p0_16p0.json","11.1","true","5g0efzobl0q","","2310","https://mcdermottlab.mit.edu/mturk_stimuli/bjmedina/mem_exp_ind-nature_2025/mem_stim_28.wav","0","main","","","true","mem_stim_28.wav","false","16","","0","miss"
"","","","","","html-keyboard-response","149","915078","0.0-10.0-1.59","https://mcdermottlab.mit.edu/mturk_stimuli/bjmedina/mem_exp_ind-nature_2025/sequences/isi_16/len120/seq053_len120_tol0_s15_isi-1p0_0p0_16p0.json","11.1","true","5g0efzobl0q","","null","<span style=""font-size: 40px"">+</span>","null","","","","","","","","","",""
"","","","","","audio-button-response","150","918282","0.0-10.0-2.59","https://mcdermottlab.mit.edu/mturk_stimuli/bjmedina/mem_exp_ind-nature_2025/sequences/isi_16/len120/seq053_len120_tol0_s15_isi-1p0_0p0_16p0.json","11.1","true","5g0efzobl0q","","2630","https://mcdermottlab.mit.edu/mturk_stimuli/bjmedina/mem_exp_ind-nature_2025/mem_stim_6.wav","0","main","","","false","mem_stim_6.wav","false","-1","","1","correct_rejection"
"","","","","","html-keyboard-response","151","918352","0.0-10.0-1.60","https://mcdermottlab.mit.edu/mturk_stimuli/bjmedina/mem_exp_ind-nature_2025/sequences/isi_16/len120/seq053_len120_tol0_s15_isi-1p0_0p0_16p0.json","11.1","true","5g0efzobl0q","","null","<span style=""font-size: 40px"">+</span>","null","","","","","","","","","",""
"","","","","","audio-button-response","152","920806","0.0-10.0-2.60","https://mcdermottlab.mit.edu/mturk_stimuli/bjmedina/mem_exp_ind-nature_2025/sequences/isi_16/len120/seq053_len120_tol0_s15_isi-1p0_0p0_16p0.json","11.1","true","5g0efzobl0q","","2450","https://mcdermottlab.mit.edu/mturk_stimuli/bjmedina/mem_exp_ind-nature_2025/mem_stim_6.wav","3","main","","","true","mem_stim_6.wav","true","0","","0","miss"
"","","","","","html-keyboard-response","153","920867","0.0-10.0-1.61","https://mcdermottlab.mit.edu/mturk_stimuli/bjmedina/mem_exp_ind-nature_2025/sequences/isi_16/len120/seq053_len120_tol0_s15_isi-1p0_0p0_16p0.json","11.1","true","5g0efzobl0q","","null","<span style=""font-size: 40px"">+</span>","null","","","","","","","","","",""
"","","","","","audio-button-response","154","928541","0.0-10.0-2.61","https://mcdermottlab.mit.edu/mturk_stimuli/bjmedina/mem_exp_ind-nature_2025/sequences/isi_16/len120/seq053_len120_tol0_s15_isi-1p0_0p0_16p0.json","11.1","true","5g0efzobl0q","","7451","https://mcdermottlab.mit.edu/mturk_stimuli/bjmedina/mem_exp_ind-nature_2025/mem_stim_63.wav","1","main","","","false","mem_stim_63.wav","false","-1","","0","false_alarm"
"","","","","","html-keyboard-response","155","928605","0.0-10.0-1.62","https://mcdermottlab.mit.edu/mturk_stimuli/bjmedina/mem_exp_ind-nature_2025/sequences/isi_16/len120/seq053_len120_tol0_s15_isi-1p0_0p0_16p0.json","11.1","true","5g0efzobl0q","","null","<span style=""font-size: 40px"">+</span>","null","","","","","","","","","",""
"","","","","","audio-button-response","156","932495","0.0-10.0-2.62","https://mcdermottlab.mit.edu/mturk_stimuli/bjmedina/mem_exp_ind-nature_2025/sequences/isi_16/len120/seq053_len120_tol0_s15_isi-1p0_0p0_16p0.json","11.1","true","5g0efzobl0q","","3561","https://mcdermottlab.mit.edu/mturk_stimuli/bjmedina/mem_exp_ind-nature_2025/mem_stim_34.wav","0","main","","","false","mem_stim_34.wav","false","-1","","1","correct_rejection"
"","","","","","html-keyboard-response","157","932567","0.0-10.0-1.63","https://mcdermottlab.mit.edu/mturk_stimuli/bjmedina/mem_exp_ind-nature_2025/sequences/isi_16/len120/seq053_len120_tol0_s15_isi-1p0_0p0_16p0.json","11.1","true","5g0efzobl0q","","null","<span style=""font-size: 40px"">+</span>","null","","","","","","","","","",""
"","","","","","audio-button-response","158","936014","0.0-10.0-2.63","https://mcdermottlab.mit.edu/mturk_stimuli/bjmedina/mem_exp_ind-nature_2025/sequences/isi_16/len120/seq053_len120_tol0_s15_isi-1p0_0p0_16p0.json","11.1","true","5g0efzobl0q","","3260","https://mcdermottlab.mit.edu/mturk_stimuli/bjmedina/mem_exp_ind-nature_2025/mem_stim_8.wav","0","main","","","false","mem_stim_8.wav","false","-1","","1","correct_rejection"
"","","","","","html-keyboard-response","159","936078","0.0-10.0-1.64","https://mcdermottlab.mit.edu/mturk_stimuli/bjmedina/mem_exp_ind-nature_2025/sequences/isi_16/len120/seq053_len120_tol0_s15_isi-1p0_0p0_16p0.json","11.1","true","5g0efzobl0q","","null","<span style=""font-size: 40px"">+</span>","null","","","","","","","","","",""
"","","","","","audio-button-response","160","938734","0.0-10.0-2.64","https://mcdermottlab.mit.edu/mturk_stimuli/bjmedina/mem_exp_ind-nature_2025/sequences/isi_16/len120/seq053_len120_tol0_s15_isi-1p0_0p0_16p0.json","11.1","true","5g0efzobl0q","","2659","https://mcdermottlab.mit.edu/mturk_stimuli/bjmedina/mem_exp_ind-nature_2025/mem_stim_8.wav","3","main","","","true","mem_stim_8.wav","true","0","","0","miss"
"","","","","","html-keyboard-response","161","938793","0.0-10.0-1.65","https://mcdermottlab.mit.edu/mturk_stimuli/bjmedina/mem_exp_ind-nature_2025/sequences/isi_16/len120/seq053_len120_tol0_s15_isi-1p0_0p0_16p0.json","11.1","true","5g0efzobl0q","","null","<span style=""font-size: 40px"">+</span>","null","","","","","","","","","",""
"","","","","","audio-button-response","162","941767","0.0-10.0-2.65","https://mcdermottlab.mit.edu/mturk_stimuli/bjmedina/mem_exp_ind-nature_2025/sequences/isi_16/len120/seq053_len120_tol0_s15_isi-1p0_0p0_16p0.json","11.1","true","5g0efzobl0q","","2969","https://mcdermottlab.mit.edu/mturk_stimuli/bjmedina/mem_exp_ind-nature_2025/mem_stim_11.wav","2","main","","","true","mem_stim_11.wav","false","16","","0","miss"
"","","","","","html-keyboard-response","163","941828","0.0-10.0-1.66","https://mcdermottlab.mit.edu/mturk_stimuli/bjmedina/mem_exp_ind-nature_2025/sequences/isi_16/len120/seq053_len120_tol0_s15_isi-1p0_0p0_16p0.json","11.1","true","5g0efzobl0q","","null","<span style=""font-size: 40px"">+</span>","null","","","","","","","","","",""
"","","","","","audio-button-response","164","944841","0.0-10.0-2.66","https://mcdermottlab.mit.edu/mturk_stimuli/bjmedina/mem_exp_ind-nature_2025/sequences/isi_16/len120/seq053_len120_tol0_s15_isi-1p0_0p0_16p0.json","11.1","true","5g0efzobl0q","","2702","https://mcdermottlab.mit.edu/mturk_stimuli/bjmedina/mem_exp_ind-nature_2025/mem_stim_37.wav","2","main","","","false","mem_stim_37.wav","false","-1","","1","correct_rejection"
"","","","","","html-keyboard-response","165","944902","0.0-10.0-1.67","https://mcdermottlab.mit.edu/mturk_stimuli/bjmedina/mem_exp_ind-nature_2025/sequences/isi_16/len120/seq053_len120_tol0_s15_isi-1p0_0p0_16p0.json","11.1","true","5g0efzobl0q","","null","<span style=""font-size: 40px"">+</span>","null","","","","","","","","","",""
"","","","","","audio-button-response","166","947398","0.0-10.0-2.67","https://mcdermottlab.mit.edu/mturk_stimuli/bjmedina/mem_exp_ind-nature_2025/sequences/isi_16/len120/seq053_len120_tol0_s15_isi-1p0_0p0_16p0.json","11.1","true","5g0efzobl0q","","2220","https://mcdermottlab.mit.edu/mturk_stimuli/bjmedina/mem_exp_ind-nature_2025/mem_stim_33.wav","0","main","","","false","mem_stim_33.wav","false","-1","","1","correct_rejection"
"","","","","","html-keyboard-response","167","947464","0.0-10.0-1.68","https://mcdermottlab.mit.edu/mturk_stimuli/bjmedina/mem_exp_ind-nature_2025/sequences/isi_16/len120/seq053_len120_tol0_s15_isi-1p0_0p0_16p0.json","11.1","true","5g0efzobl0q","","null","<span style=""font-size: 40px"">+</span>","null","","","","","","","","","",""
"","","","","","audio-button-response","168","950405","0.0-10.0-2.68","https://mcdermottlab.mit.edu/mturk_stimuli/bjmedina/mem_exp_ind-nature_2025/sequences/isi_16/len120/seq053_len120_tol0_s15_isi-1p0_0p0_16p0.json","11.1","true","5g0efzobl0q","","2670","https://mcdermottlab.mit.edu/mturk_stimuli/bjmedina/mem_exp_ind-nature_2025/mem_stim_15.wav","0","main","","","false","mem_stim_15.wav","false","-1","","1","correct_rejection"
"","","","","","html-keyboard-response","169","950464","0.0-10.0-1.69","https://mcdermottlab.mit.edu/mturk_stimuli/bjmedina/mem_exp_ind-nature_2025/sequences/isi_16/len120/seq053_len120_tol0_s15_isi-1p0_0p0_16p0.json","11.1","true","5g0efzobl0q","","null","<span style=""font-size: 40px"">+</span>","null","","","","","","","","","",""
"","","","","","audio-button-response","170","953517","0.0-10.0-2.69","https://mcdermottlab.mit.edu/mturk_stimuli/bjmedina/mem_exp_ind-nature_2025/sequences/isi_16/len120/seq053_len120_tol0_s15_isi-1p0_0p0_16p0.json","11.1","true","5g0efzobl0q","","2531","https://mcdermottlab.mit.edu/mturk_stimuli/bjmedina/mem_exp_ind-nature_2025/mem_stim_64.wav","0","main","","","false","mem_stim_64.wav","false","-1","","1","correct_rejection"
"","","","","","html-keyboard-response","171","953581","0.0-10.0-1.70","https://mcdermottlab.mit.edu/mturk_stimuli/bjmedina/mem_exp_ind-nature_2025/sequences/isi_16/len120/seq053_len120_tol0_s15_isi-1p0_0p0_16p0.json","11.1","true","5g0efzobl0q","","null","<span style=""font-size: 40px"">+</span>","null","","","","","","","","","",""
"","","","","","audio-button-response","172","956390","0.0-10.0-2.70","https://mcdermottlab.mit.edu/mturk_stimuli/bjmedina/mem_exp_ind-nature_2025/sequences/isi_16/len120/seq053_len120_tol0_s15_isi-1p0_0p0_16p0.json","11.1","true","5g0efzobl0q","","2577","https://mcdermottlab.mit.edu/mturk_stimuli/bjmedina/mem_exp_ind-nature_2025/mem_stim_67.wav","0","main","","","false","mem_stim_67.wav","false","-1","","1","correct_rejection"
"","","","","","html-keyboard-response","173","956450","0.0-10.0-1.71","https://mcdermottlab.mit.edu/mturk_stimuli/bjmedina/mem_exp_ind-nature_2025/sequences/isi_16/len120/seq053_len120_tol0_s15_isi-1p0_0p0_16p0.json","11.1","true","5g0efzobl0q","","null","<span style=""font-size: 40px"">+</span>","null","","","","","","","","","",""
"","","","","","audio-button-response","174","963674","0.0-10.0-2.71","https://mcdermottlab.mit.edu/mturk_stimuli/bjmedina/mem_exp_ind-nature_2025/sequences/isi_16/len120/seq053_len120_tol0_s15_isi-1p0_0p0_16p0.json","11.1","true","5g0efzobl0q","","7219","https://mcdermottlab.mit.edu/mturk_stimuli/bjmedina/mem_exp_ind-nature_2025/mem_stim_26.wav","0","main","","","true","mem_stim_26.wav","false","16","","0","miss"
"","","","","","html-keyboard-response","175","963733","0.0-10.0-1.72","https://mcdermottlab.mit.edu/mturk_stimuli/bjmedina/mem_exp_ind-nature_2025/sequences/isi_16/len120/seq053_len120_tol0_s15_isi-1p0_0p0_16p0.json","11.1","true","5g0efzobl0q","","null","<span style=""font-size: 40px"">+</span>","null","","","","","","","","","",""
"","","","","","audio-button-response","176","967908","0.0-10.0-2.72","https://mcdermottlab.mit.edu/mturk_stimuli/bjmedina/mem_exp_ind-nature_2025/sequences/isi_16/len120/seq053_len120_tol0_s15_isi-1p0_0p0_16p0.json","11.1","true","5g0efzobl0q","","4168","https://mcdermottlab.mit.edu/mturk_stimuli/bjmedina/mem_exp_ind-nature_2025/mem_stim_36.wav","3","main","","","true","mem_stim_36.wav","false","16","","0","miss"
"","","","","","html-keyboard-response","177","967972","0.0-10.0-1.73","https://mcdermottlab.mit.edu/mturk_stimuli/bjmedina/mem_exp_ind-nature_2025/sequences/isi_16/len120/seq053_len120_tol0_s15_isi-1p0_0p0_16p0.json","11.1","true","5g0efzobl0q","","null","<span style=""font-size: 40px"">+</span>","null","","","","","","","","","",""
"","","","","","audio-button-response","178","970004","0.0-10.0-2.73","https://mcdermottlab.mit.edu/mturk_stimuli/bjmedina/mem_exp_ind-nature_2025/sequences/isi_16/len120/seq053_len120_tol0_s15_isi-1p0_0p0_16p0.json","11.1","true","5g0efzobl0q","","2029","https://mcdermottlab.mit.edu/mturk_stimuli/bjmedina/mem_exp_ind-nature_2025/mem_stim_13.wav","2","main","","","true","mem_stim_13.wav","false","16","","0","miss"
"","","","","","html-keyboard-response","179","970068","0.0-10.0-1.74","https://mcdermottlab.mit.edu/mturk_stimuli/bjmedina/mem_exp_ind-nature_2025/sequences/isi_16/len120/seq053_len120_tol0_s15_isi-1p0_0p0_16p0.json","11.1","true","5g0efzobl0q","","null","<span style=""font-size: 40px"">+</span>","null","","","","","","","","","",""
"","","","","","audio-button-response","180","972999","0.0-10.0-2.74","https://mcdermottlab.mit.edu/mturk_stimuli/bjmedina/mem_exp_ind-nature_2025/sequences/isi_16/len120/seq053_len120_tol0_s15_isi-1p0_0p0_16p0.json","11.1","true","5g0efzobl0q","","2601","https://mcdermottlab.mit.edu/mturk_stimuli/bjmedina/mem_exp_ind-nature_2025/mem_stim_58.wav","0","main","","","false","mem_stim_58.wav","false","-1","","1","correct_rejection"
"","","","","","html-keyboard-response","181","973058","0.0-10.0-1.75","https://mcdermottlab.mit.edu/mturk_stimuli/bjmedina/mem_exp_ind-nature_2025/sequences/isi_16/len120/seq053_len120_tol0_s15_isi-1p0_0p0_16p0.json","11.1","true","5g0efzobl0q","","null","<span style=""font-size: 40px"">+</span>","null","","","","","","","","","",""
"","","","","","audio-button-response","182","976150","0.0-10.0-2.75","https://mcdermottlab.mit.edu/mturk_stimuli/bjmedina/mem_exp_ind-nature_2025/sequences/isi_16/len120/seq053_len120_tol0_s15_isi-1p0_0p0_16p0.json","11.1","true","5g0efzobl0q","","2540","https://mcdermottlab.mit.edu/mturk_stimuli/bjmedina/mem_exp_ind-nature_2025/mem_stim_55.wav","0","main","","","false","mem_stim_55.wav","false","-1","","1","correct_rejection"
"","","","","","html-keyboard-response","183","976214","0.0-10.0-1.76","https://mcdermottlab.mit.edu/mturk_stimuli/bjmedina/mem_exp_ind-nature_2025/sequences/isi_16/len120/seq053_len120_tol0_s15_isi-1p0_0p0_16p0.json","11.1","true","5g0efzobl0q","","null","<span style=""font-size: 40px"">+</span>","null","","","","","","","","","",""
"","","","","","audio-button-response","184","979251","0.0-10.0-2.76","https://mcdermottlab.mit.edu/mturk_stimuli/bjmedina/mem_exp_ind-nature_2025/sequences/isi_16/len120/seq053_len120_tol0_s15_isi-1p0_0p0_16p0.json","11.1","true","5g0efzobl0q","","2749","https://mcdermottlab.mit.edu/mturk_stimuli/bjmedina/mem_exp_ind-nature_2025/mem_stim_22.wav","1","main","","","false","mem_stim_22.wav","false","-1","","0","false_alarm"
"","","","","","html-keyboard-response","185","979321","0.0-10.0-1.77","https://mcdermottlab.mit.edu/mturk_stimuli/bjmedina/mem_exp_ind-nature_2025/sequences/isi_16/len120/seq053_len120_tol0_s15_isi-1p0_0p0_16p0.json","11.1","true","5g0efzobl0q","","null","<span style=""font-size: 40px"">+</span>","null","","","","","","","","","",""
"","","","","","audio-button-response","186","981873","0.0-10.0-2.77","https://mcdermottlab.mit.edu/mturk_stimuli/bjmedina/mem_exp_ind-nature_2025/sequences/isi_16/len120/seq053_len120_tol0_s15_isi-1p0_0p0_16p0.json","11.1","true","5g0efzobl0q","","2287","https://mcdermottlab.mit.edu/mturk_stimuli/bjmedina/mem_exp_ind-nature_2025/mem_stim_43.wav","0","main","","","false","mem_stim_43.wav","false","-1","","1","correct_rejection"
"","","","","","html-keyboard-response","187","981933","0.0-10.0-1.78","https://mcdermottlab.mit.edu/mturk_stimuli/bjmedina/mem_exp_ind-nature_2025/sequences/isi_16/len120/seq053_len120_tol0_s15_isi-1p0_0p0_16p0.json","11.1","true","5g0efzobl0q","","null","<span style=""font-size: 40px"">+</span>","null","","","","","","","","","",""
"","","","","","audio-button-response","188","984550","0.0-10.0-2.78","https://mcdermottlab.mit.edu/mturk_stimuli/bjmedina/mem_exp_ind-nature_2025/sequences/isi_16/len120/seq053_len120_tol0_s15_isi-1p0_0p0_16p0.json","11.1","true","5g0efzobl0q","","2238","https://mcdermottlab.mit.edu/mturk_stimuli/bjmedina/mem_exp_ind-nature_2025/mem_stim_53.wav","0","main","","","false","mem_stim_53.wav","false","-1","","1","correct_rejection"
"","","","","","html-keyboard-response","189","984620","0.0-10.0-1.79","https://mcdermottlab.mit.edu/mturk_stimuli/bjmedina/mem_exp_ind-nature_2025/sequences/isi_16/len120/seq053_len120_tol0_s15_isi-1p0_0p0_16p0.json","11.1","true","5g0efzobl0q","","null","<span style=""font-size: 40px"">+</span>","null","","","","","","","","","",""
"","","","","","audio-button-response","190","987306","0.0-10.0-2.79","https://mcdermottlab.mit.edu/mturk_stimuli/bjmedina/mem_exp_ind-nature_2025/sequences/isi_16/len120/seq053_len120_tol0_s15_isi-1p0_0p0_16p0.json","11.1","true","5g0efzobl0q","","2688","https://mcdermottlab.mit.edu/mturk_stimuli/bjmedina/mem_exp_ind-nature_2025/mem_stim_34.wav","3","main","","","true","mem_stim_34.wav","false","16","","0","miss"
"","","","","","html-keyboard-response","191","987367","0.0-10.0-1.80","https://mcdermottlab.mit.edu/mturk_stimuli/bjmedina/mem_exp_ind-nature_2025/sequences/isi_16/len120/seq053_len120_tol0_s15_isi-1p0_0p0_16p0.json","11.1","true","5g0efzobl0q","","null","<span style=""font-size: 40px"">+</span>","null","","","","","","","","","",""
"","","","","","audio-button-response","192","992598","0.0-10.0-2.80","https://mcdermottlab.mit.edu/mturk_stimuli/bjmedina/mem_exp_ind-nature_2025/sequences/isi_16/len120/seq053_len120_tol0_s15_isi-1p0_0p0_16p0.json","11.1","true","5g0efzobl0q","","4580","https://mcdermottlab.mit.edu/mturk_stimuli/bjmedina/mem_exp_ind-nature_2025/mem_stim_47.wav","0","main","","","false","mem_stim_47.wav","false","-1","","1","correct_rejection"
"","","","","","html-keyboard-response","193","992672","0.0-10.0-1.81","https://mcdermottlab.mit.edu/mturk_stimuli/bjmedina/mem_exp_ind-nature_2025/sequences/isi_16/len120/seq053_len120_tol0_s15_isi-1p0_0p0_16p0.json","11.1","true","5g0efzobl0q","","null","<span style=""font-size: 40px"">+</span>","null","","","","","","","","","",""
"","","","","","audio-button-response","194","995991","0.0-10.0-2.81","https://mcdermottlab.mit.edu/mturk_stimuli/bjmedina/mem_exp_ind-nature_2025/sequences/isi_16/len120/seq053_len120_tol0_s15_isi-1p0_0p0_16p0.json","11.1","true","5g0efzobl0q","","2682","https://mcdermottlab.mit.edu/mturk_stimuli/bjmedina/mem_exp_ind-nature_2025/mem_stim_0.wav","0","main","","","false","mem_stim_0.wav","false","-1","","1","correct_rejection"
"","","","","","html-keyboard-response","195","996058","0.0-10.0-1.82","https://mcdermottlab.mit.edu/mturk_stimuli/bjmedina/mem_exp_ind-nature_2025/sequences/isi_16/len120/seq053_len120_tol0_s15_isi-1p0_0p0_16p0.json","11.1","true","5g0efzobl0q","","null","<span style=""font-size: 40px"">+</span>","null","","","","","","","","","",""
"","","","","","audio-button-response","196","998148","0.0-10.0-2.82","https://mcdermottlab.mit.edu/mturk_stimuli/bjmedina/mem_exp_ind-nature_2025/sequences/isi_16/len120/seq053_len120_tol0_s15_isi-1p0_0p0_16p0.json","11.1","true","5g0efzobl0q","","2090","https://mcdermottlab.mit.edu/mturk_stimuli/bjmedina/mem_exp_ind-nature_2025/mem_stim_0.wav","3","main","","","true","mem_stim_0.wav","true","0","","0","miss"
"","","","","","html-keyboard-response","197","998208","0.0-10.0-1.83","https://mcdermottlab.mit.edu/mturk_stimuli/bjmedina/mem_exp_ind-nature_2025/sequences/isi_16/len120/seq053_len120_tol0_s15_isi-1p0_0p0_16p0.json","11.1","true","5g0efzobl0q","","null","<span style=""font-size: 40px"">+</span>","null","","","","","","","","","",""
"","","","","","audio-button-response","198","1000831","0.0-10.0-2.83","https://mcdermottlab.mit.edu/mturk_stimuli/bjmedina/mem_exp_ind-nature_2025/sequences/isi_16/len120/seq053_len120_tol0_s15_isi-1p0_0p0_16p0.json","11.1","true","5g0efzobl0q","","2618","https://mcdermottlab.mit.edu/mturk_stimuli/bjmedina/mem_exp_ind-nature_2025/mem_stim_37.wav","3","main","","","true","mem_stim_37.wav","false","16","","0","miss"
"","","","","","html-keyboard-response","199","1000894","0.0-10.0-1.84","https://mcdermottlab.mit.edu/mturk_stimuli/bjmedina/mem_exp_ind-nature_2025/sequences/isi_16/len120/seq053_len120_tol0_s15_isi-1p0_0p0_16p0.json","11.1","true","5g0efzobl0q","","null","<span style=""font-size: 40px"">+</span>","null","","","","","","","","","",""
"","","","","","audio-button-response","200","1003286","0.0-10.0-2.84","https://mcdermottlab.mit.edu/mturk_stimuli/bjmedina/mem_exp_ind-nature_2025/sequences/isi_16/len120/seq053_len120_tol0_s15_isi-1p0_0p0_16p0.json","11.1","true","5g0efzobl0q","","2392","https://mcdermottlab.mit.edu/mturk_stimuli/bjmedina/mem_exp_ind-nature_2025/mem_stim_33.wav","3","main","","","true","mem_stim_33.wav","false","16","","0","miss"
"","","","","","html-keyboard-response","201","1003356","0.0-10.0-1.85","https://mcdermottlab.mit.edu/mturk_stimuli/bjmedina/mem_exp_ind-nature_2025/sequences/isi_16/len120/seq053_len120_tol0_s15_isi-1p0_0p0_16p0.json","11.1","true","5g0efzobl0q","","null","<span style=""font-size: 40px"">+</span>","null","","","","","","","","","",""
"","","","","","audio-button-response","202","1005972","0.0-10.0-2.85","https://mcdermottlab.mit.edu/mturk_stimuli/bjmedina/mem_exp_ind-nature_2025/sequences/isi_16/len120/seq053_len120_tol0_s15_isi-1p0_0p0_16p0.json","11.1","true","5g0efzobl0q","","2621","https://mcdermottlab.mit.edu/mturk_stimuli/bjmedina/mem_exp_ind-nature_2025/mem_stim_15.wav","3","main","","","true","mem_stim_15.wav","false","16","","0","miss"
"","","","","","html-keyboard-response","203","1006033","0.0-10.0-1.86","https://mcdermottlab.mit.edu/mturk_stimuli/bjmedina/mem_exp_ind-nature_2025/sequences/isi_16/len120/seq053_len120_tol0_s15_isi-1p0_0p0_16p0.json","11.1","true","5g0efzobl0q","","null","<span style=""font-size: 40px"">+</span>","null","","","","","","","","","",""
"","","","","","audio-button-response","204","1010206","0.0-10.0-2.86","https://mcdermottlab.mit.edu/mturk_stimuli/bjmedina/mem_exp_ind-nature_2025/sequences/isi_16/len120/seq053_len120_tol0_s15_isi-1p0_0p0_16p0.json","11.1","true","5g0efzobl0q","","3869","https://mcdermottlab.mit.edu/mturk_stimuli/bjmedina/mem_exp_ind-nature_2025/mem_stim_18.wav","0","main","","","false","mem_stim_18.wav","false","-1","","1","correct_rejection"
"","","","","","html-keyboard-response","205","1010275","0.0-10.0-1.87","https://mcdermottlab.mit.edu/mturk_stimuli/bjmedina/mem_exp_ind-nature_2025/sequences/isi_16/len120/seq053_len120_tol0_s15_isi-1p0_0p0_16p0.json","11.1","true","5g0efzobl0q","","null","<span style=""font-size: 40px"">+</span>","null","","","","","","","","","",""
"","","","","","audio-button-response","206","1013092","0.0-10.0-2.87","https://mcdermottlab.mit.edu/mturk_stimuli/bjmedina/mem_exp_ind-nature_2025/sequences/isi_16/len120/seq053_len120_tol0_s15_isi-1p0_0p0_16p0.json","11.1","true","5g0efzobl0q","","2551","https://mcdermottlab.mit.edu/mturk_stimuli/bjmedina/mem_exp_ind-nature_2025/mem_stim_12.wav","0","main","","","false","mem_stim_12.wav","false","-1","","1","correct_rejection"
"","","","","","html-keyboard-response","207","1013152","0.0-10.0-1.88","https://mcdermottlab.mit.edu/mturk_stimuli/bjmedina/mem_exp_ind-nature_2025/sequences/isi_16/len120/seq053_len120_tol0_s15_isi-1p0_0p0_16p0.json","11.1","true","5g0efzobl0q","","null","<span style=""font-size: 40px"">+</span>","null","","","","","","","","","",""
"","","","","","audio-button-response","208","1017908","0.0-10.0-2.88","https://mcdermottlab.mit.edu/mturk_stimuli/bjmedina/mem_exp_ind-nature_2025/sequences/isi_16/len120/seq053_len120_tol0_s15_isi-1p0_0p0_16p0.json","11.1","true","5g0efzobl0q","","4261","https://mcdermottlab.mit.edu/mturk_stimuli/bjmedina/mem_exp_ind-nature_2025/mem_stim_9.wav","0","main","","","false","mem_stim_9.wav","false","-1","","1","correct_rejection"
"","","","","","html-keyboard-response","209","1017983","0.0-10.0-1.89","https://mcdermottlab.mit.edu/mturk_stimuli/bjmedina/mem_exp_ind-nature_2025/sequences/isi_16/len120/seq053_len120_tol0_s15_isi-1p0_0p0_16p0.json","11.1","true","5g0efzobl0q","","null","<span style=""font-size: 40px"">+</span>","null","","","","","","","","","",""
"","","","","","audio-button-response","210","1020160","0.0-10.0-2.89","https://mcdermottlab.mit.edu/mturk_stimuli/bjmedina/mem_exp_ind-nature_2025/sequences/isi_16/len120/seq053_len120_tol0_s15_isi-1p0_0p0_16p0.json","11.1","true","5g0efzobl0q","","2168","https://mcdermottlab.mit.edu/mturk_stimuli/bjmedina/mem_exp_ind-nature_2025/mem_stim_9.wav","3","main","","","true","mem_stim_9.wav","true","0","","0","miss"
"","","","","","html-keyboard-response","211","1020225","0.0-10.0-1.90","https://mcdermottlab.mit.edu/mturk_stimuli/bjmedina/mem_exp_ind-nature_2025/sequences/isi_16/len120/seq053_len120_tol0_s15_isi-1p0_0p0_16p0.json","11.1","true","5g0efzobl0q","","null","<span style=""font-size: 40px"">+</span>","null","","","","","","","","","",""
"","","","","","audio-button-response","212","1023447","0.0-10.0-2.90","https://mcdermottlab.mit.edu/mturk_stimuli/bjmedina/mem_exp_ind-nature_2025/sequences/isi_16/len120/seq053_len120_tol0_s15_isi-1p0_0p0_16p0.json","11.1","true","5g0efzobl0q","","2920","https://mcdermottlab.mit.edu/mturk_stimuli/bjmedina/mem_exp_ind-nature_2025/mem_stim_27.wav","1","main","","","false","mem_stim_27.wav","false","-1","","0","false_alarm"
"","","","","","html-keyboard-response","213","1023510","0.0-10.0-1.91","https://mcdermottlab.mit.edu/mturk_stimuli/bjmedina/mem_exp_ind-nature_2025/sequences/isi_16/len120/seq053_len120_tol0_s15_isi-1p0_0p0_16p0.json","11.1","true","5g0efzobl0q","","null","<span style=""font-size: 40px"">+</span>","null","","","","","","","","","",""
"","","","","","audio-button-response","214","1026629","0.0-10.0-2.91","https://mcdermottlab.mit.edu/mturk_stimuli/bjmedina/mem_exp_ind-nature_2025/sequences/isi_16/len120/seq053_len120_tol0_s15_isi-1p0_0p0_16p0.json","11.1","true","5g0efzobl0q","","2908","https://mcdermottlab.mit.edu/mturk_stimuli/bjmedina/mem_exp_ind-nature_2025/mem_stim_24.wav","1","main","","","false","mem_stim_24.wav","false","-1","","0","false_alarm"
"","","","","","html-keyboard-response","215","1026697","0.0-10.0-1.92","https://mcdermottlab.mit.edu/mturk_stimuli/bjmedina/mem_exp_ind-nature_2025/sequences/isi_16/len120/seq053_len120_tol0_s15_isi-1p0_0p0_16p0.json","11.1","true","5g0efzobl0q","","null","<span style=""font-size: 40px"">+</span>","null","","","","","","","","","",""
"","","","","","audio-button-response","216","1030273","0.0-10.0-2.92","https://mcdermottlab.mit.edu/mturk_stimuli/bjmedina/mem_exp_ind-nature_2025/sequences/isi_16/len120/seq053_len120_tol0_s15_isi-1p0_0p0_16p0.json","11.1","true","5g0efzobl0q","","2879","https://mcdermottlab.mit.edu/mturk_stimuli/bjmedina/mem_exp_ind-nature_2025/mem_stim_69.wav","1","main","","","false","mem_stim_69.wav","false","-1","","0","false_alarm"
"","","","","","html-keyboard-response","217","1030334","0.0-10.0-1.93","https://mcdermottlab.mit.edu/mturk_stimuli/bjmedina/mem_exp_ind-nature_2025/sequences/isi_16/len120/seq053_len120_tol0_s15_isi-1p0_0p0_16p0.json","11.1","true","5g0efzobl0q","","null","<span style=""font-size: 40px"">+</span>","null","","","","","","","","","",""
"","","","","","audio-button-response","218","1032846","0.0-10.0-2.93","https://mcdermottlab.mit.edu/mturk_stimuli/bjmedina/mem_exp_ind-nature_2025/sequences/isi_16/len120/seq053_len120_tol0_s15_isi-1p0_0p0_16p0.json","11.1","true","5g0efzobl0q","","2511","https://mcdermottlab.mit.edu/mturk_stimuli/bjmedina/mem_exp_ind-nature_2025/mem_stim_22.wav","2","main","","","true","mem_stim_22.wav","false","16","","0","miss"
"","","","","","html-keyboard-response","219","1032917","0.0-10.0-1.94","https://mcdermottlab.mit.edu/mturk_stimuli/bjmedina/mem_exp_ind-nature_2025/sequences/isi_16/len120/seq053_len120_tol0_s15_isi-1p0_0p0_16p0.json","11.1","true","5g0efzobl0q","","null","<span style=""font-size: 40px"">+</span>","null","","","","","","","","","",""
"","","","","","audio-button-response","220","1035687","0.0-10.0-2.94","https://mcdermottlab.mit.edu/mturk_stimuli/bjmedina/mem_exp_ind-nature_2025/sequences/isi_16/len120/seq053_len120_tol0_s15_isi-1p0_0p0_16p0.json","11.1","true","5g0efzobl0q","","2461","https://mcdermottlab.mit.edu/mturk_stimuli/bjmedina/mem_exp_ind-nature_2025/mem_stim_30.wav","2","main","","","false","mem_stim_30.wav","false","-1","","1","correct_rejection"
"","","","","","html-keyboard-response","221","1035759","0.0-10.0-1.95","https://mcdermottlab.mit.edu/mturk_stimuli/bjmedina/mem_exp_ind-nature_2025/sequences/isi_16/len120/seq053_len120_tol0_s15_isi-1p0_0p0_16p0.json","11.1","true","5g0efzobl0q","","null","<span style=""font-size: 40px"">+</span>","null","","","","","","","","","",""
"","","","","","audio-button-response","222","1038720","0.0-10.0-2.95","https://mcdermottlab.mit.edu/mturk_stimuli/bjmedina/mem_exp_ind-nature_2025/sequences/isi_16/len120/seq053_len120_tol0_s15_isi-1p0_0p0_16p0.json","11.1","true","5g0efzobl0q","","2772","https://mcdermottlab.mit.edu/mturk_stimuli/bjmedina/mem_exp_ind-nature_2025/mem_stim_51.wav","0","main","","","false","mem_stim_51.wav","false","-1","","1","correct_rejection"
"","","","","","html-keyboard-response","223","1038787","0.0-10.0-1.96","https://mcdermottlab.mit.edu/mturk_stimuli/bjmedina/mem_exp_ind-nature_2025/sequences/isi_16/len120/seq053_len120_tol0_s15_isi-1p0_0p0_16p0.json","11.1","true","5g0efzobl0q","","null","<span style=""font-size: 40px"">+</span>","null","","","","","","","","","",""
"","","","","","audio-button-response","224","1042893","0.0-10.0-2.96","https://mcdermottlab.mit.edu/mturk_stimuli/bjmedina/mem_exp_ind-nature_2025/sequences/isi_16/len120/seq053_len120_tol0_s15_isi-1p0_0p0_16p0.json","11.1","true","5g0efzobl0q","","3881","https://mcdermottlab.mit.edu/mturk_stimuli/bjmedina/mem_exp_ind-nature_2025/mem_stim_72.wav","1","main","","","false","mem_stim_72.wav","false","-1","","0","false_alarm"
"","","","","","html-keyboard-response","225","1042955","0.0-10.0-1.97","https://mcdermottlab.mit.edu/mturk_stimuli/bjmedina/mem_exp_ind-nature_2025/sequences/isi_16/len120/seq053_len120_tol0_s15_isi-1p0_0p0_16p0.json","11.1","true","5g0efzobl0q","","null","<span style=""font-size: 40px"">+</span>","null","","","","","","","","","",""
"","","","","","audio-button-response","226","1046235","0.0-10.0-2.97","https://mcdermottlab.mit.edu/mturk_stimuli/bjmedina/mem_exp_ind-nature_2025/sequences/isi_16/len120/seq053_len120_tol0_s15_isi-1p0_0p0_16p0.json","11.1","true","5g0efzobl0q","","2813","https://mcdermottlab.mit.edu/mturk_stimuli/bjmedina/mem_exp_ind-nature_2025/mem_stim_31.wav","0","main","","","false","mem_stim_31.wav","false","-1","","1","correct_rejection"
"","","","","","html-keyboard-response","227","1046295","0.0-10.0-1.98","https://mcdermottlab.mit.edu/mturk_stimuli/bjmedina/mem_exp_ind-nature_2025/sequences/isi_16/len120/seq053_len120_tol0_s15_isi-1p0_0p0_16p0.json","11.1","true","5g0efzobl0q","","null","<span style=""font-size: 40px"">+</span>","null","","","","","","","","","",""
"","","","","","audio-button-response","228","1050140","0.0-10.0-2.98","https://mcdermottlab.mit.edu/mturk_stimuli/bjmedina/mem_exp_ind-nature_2025/sequences/isi_16/len120/seq053_len120_tol0_s15_isi-1p0_0p0_16p0.json","11.1","true","5g0efzobl0q","","3468","https://mcdermottlab.mit.edu/mturk_stimuli/bjmedina/mem_exp_ind-nature_2025/mem_stim_77.wav","0","main","","","false","mem_stim_77.wav","false","-1","","1","correct_rejection"
"","","","","","html-keyboard-response","229","1050212","0.0-10.0-1.99","https://mcdermottlab.mit.edu/mturk_stimuli/bjmedina/mem_exp_ind-nature_2025/sequences/isi_16/len120/seq053_len120_tol0_s15_isi-1p0_0p0_16p0.json","11.1","true","5g0efzobl0q","","null","<span style=""font-size: 40px"">+</span>","null","","","","","","","","","",""
"","","","","","audio-button-response","230","1053921","0.0-10.0-2.99","https://mcdermottlab.mit.edu/mturk_stimuli/bjmedina/mem_exp_ind-nature_2025/sequences/isi_16/len120/seq053_len120_tol0_s15_isi-1p0_0p0_16p0.json","11.1","true","5g0efzobl0q","","3172","https://mcdermottlab.mit.edu/mturk_stimuli/bjmedina/mem_exp_ind-nature_2025/mem_stim_35.wav","0","main","","","false","mem_stim_35.wav","false","-1","","1","correct_rejection"
"","","","","","html-keyboard-response","231","1053996","0.0-10.0-1.100","https://mcdermottlab.mit.edu/mturk_stimuli/bjmedina/mem_exp_ind-nature_2025/sequences/isi_16/len120/seq053_len120_tol0_s15_isi-1p0_0p0_16p0.json","11.1","true","5g0efzobl0q","","null","<span style=""font-size: 40px"">+</span>","null","","","","","","","","","",""
"","","","","","audio-button-response","232","1057667","0.0-10.0-2.100","https://mcdermottlab.mit.edu/mturk_stimuli/bjmedina/mem_exp_ind-nature_2025/sequences/isi_16/len120/seq053_len120_tol0_s15_isi-1p0_0p0_16p0.json","11.1","true","5g0efzobl0q","","2871","https://mcdermottlab.mit.edu/mturk_stimuli/bjmedina/mem_exp_ind-nature_2025/mem_stim_50.wav","0","main","","","false","mem_stim_50.wav","false","-1","","1","correct_rejection"
"","","","","","html-keyboard-response","233","1057738","0.0-10.0-1.101","https://mcdermottlab.mit.edu/mturk_stimuli/bjmedina/mem_exp_ind-nature_2025/sequences/isi_16/len120/seq053_len120_tol0_s15_isi-1p0_0p0_16p0.json","11.1","true","5g0efzobl0q","","null","<span style=""font-size: 40px"">+</span>","null","","","","","","","","","",""
"","","","","","audio-button-response","234","1060887","0.0-10.0-2.101","https://mcdermottlab.mit.edu/mturk_stimuli/bjmedina/mem_exp_ind-nature_2025/sequences/isi_16/len120/seq053_len120_tol0_s15_isi-1p0_0p0_16p0.json","11.1","true","5g0efzobl0q","","2540","https://mcdermottlab.mit.edu/mturk_stimuli/bjmedina/mem_exp_ind-nature_2025/mem_stim_56.wav","0","main","","","false","mem_stim_56.wav","false","-1","","1","correct_rejection"
"","","","","","html-keyboard-response","235","1060962","0.0-10.0-1.102","https://mcdermottlab.mit.edu/mturk_stimuli/bjmedina/mem_exp_ind-nature_2025/sequences/isi_16/len120/seq053_len120_tol0_s15_isi-1p0_0p0_16p0.json","11.1","true","5g0efzobl0q","","null","<span style=""font-size: 40px"">+</span>","null","","","","","","","","","",""
"","","","","","audio-button-response","236","1064095","0.0-10.0-2.102","https://mcdermottlab.mit.edu/mturk_stimuli/bjmedina/mem_exp_ind-nature_2025/sequences/isi_16/len120/seq053_len120_tol0_s15_isi-1p0_0p0_16p0.json","11.1","true","5g0efzobl0q","","2662","https://mcdermottlab.mit.edu/mturk_stimuli/bjmedina/mem_exp_ind-nature_2025/mem_stim_14.wav","0","main","","","false","mem_stim_14.wav","false","-1","","1","correct_rejection"
"","","","","","html-keyboard-response","237","1064164","0.0-10.0-1.103","https://mcdermottlab.mit.edu/mturk_stimuli/bjmedina/mem_exp_ind-nature_2025/sequences/isi_16/len120/seq053_len120_tol0_s15_isi-1p0_0p0_16p0.json","11.1","true","5g0efzobl0q","","null","<span style=""font-size: 40px"">+</span>","null","","","","","","","","","",""
"","","","","","audio-button-response","238","1066886","0.0-10.0-2.103","https://mcdermottlab.mit.edu/mturk_stimuli/bjmedina/mem_exp_ind-nature_2025/sequences/isi_16/len120/seq053_len120_tol0_s15_isi-1p0_0p0_16p0.json","11.1","true","5g0efzobl0q","","2720","https://mcdermottlab.mit.edu/mturk_stimuli/bjmedina/mem_exp_ind-nature_2025/mem_stim_18.wav","0","main","","","true","mem_stim_18.wav","false","16","","0","miss"
"","","","","","html-keyboard-response","239","1066958","0.0-10.0-1.104","https://mcdermottlab.mit.edu/mturk_stimuli/bjmedina/mem_exp_ind-nature_2025/sequences/isi_16/len120/seq053_len120_tol0_s15_isi-1p0_0p0_16p0.json","11.1","true","5g0efzobl0q","","null","<span style=""font-size: 40px"">+</span>","null","","","","","","","","","",""
"","","","","","audio-button-response","240","1069543","0.0-10.0-2.104","https://mcdermottlab.mit.edu/mturk_stimuli/bjmedina/mem_exp_ind-nature_2025/sequences/isi_16/len120/seq053_len120_tol0_s15_isi-1p0_0p0_16p0.json","11.1","true","5g0efzobl0q","","2592","https://mcdermottlab.mit.edu/mturk_stimuli/bjmedina/mem_exp_ind-nature_2025/mem_stim_12.wav","0","main","","","true","mem_stim_12.wav","false","16","","0","miss"
"","","","","","html-keyboard-response","241","1069615","0.0-10.0-1.105","https://mcdermottlab.mit.edu/mturk_stimuli/bjmedina/mem_exp_ind-nature_2025/sequences/isi_16/len120/seq053_len120_tol0_s15_isi-1p0_0p0_16p0.json","11.1","true","5g0efzobl0q","","null","<span style=""font-size: 40px"">+</span>","null","","","","","","","","","",""
"","","","","","audio-button-response","242","1074101","0.0-10.0-2.105","https://mcdermottlab.mit.edu/mturk_stimuli/bjmedina/mem_exp_ind-nature_2025/sequences/isi_16/len120/seq053_len120_tol0_s15_isi-1p0_0p0_16p0.json","11.1","true","5g0efzobl0q","","3921","https://mcdermottlab.mit.edu/mturk_stimuli/bjmedina/mem_exp_ind-nature_2025/mem_stim_4.wav","2","main","","","false","mem_stim_4.wav","false","-1","","1","correct_rejection"
"","","","","","html-keyboard-response","243","1074178","0.0-10.0-1.106","https://mcdermottlab.mit.edu/mturk_stimuli/bjmedina/mem_exp_ind-nature_2025/sequences/isi_16/len120/seq053_len120_tol0_s15_isi-1p0_0p0_16p0.json","11.1","true","5g0efzobl0q","","null","<span style=""font-size: 40px"">+</span>","null","","","","","","","","","",""
"","","","","","audio-button-response","244","1076680","0.0-10.0-2.106","https://mcdermottlab.mit.edu/mturk_stimuli/bjmedina/mem_exp_ind-nature_2025/sequences/isi_16/len120/seq053_len120_tol0_s15_isi-1p0_0p0_16p0.json","11.1","true","5g0efzobl0q","","2499","https://mcdermottlab.mit.edu/mturk_stimuli/bjmedina/mem_exp_ind-nature_2025/mem_stim_4.wav","3","main","","","true","mem_stim_4.wav","true","0","","0","miss"
"","","","","","html-keyboard-response","245","1076746","0.0-10.0-1.107","https://mcdermottlab.mit.edu/mturk_stimuli/bjmedina/mem_exp_ind-nature_2025/sequences/isi_16/len120/seq053_len120_tol0_s15_isi-1p0_0p0_16p0.json","11.1","true","5g0efzobl0q","","null","<span style=""font-size: 40px"">+</span>","null","","","","","","","","","",""
"","","","","","audio-button-response","246","1079479","0.0-10.0-2.107","https://mcdermottlab.mit.edu/mturk_stimuli/bjmedina/mem_exp_ind-nature_2025/sequences/isi_16/len120/seq053_len120_tol0_s15_isi-1p0_0p0_16p0.json","11.1","true","5g0efzobl0q","","2731","https://mcdermottlab.mit.edu/mturk_stimuli/bjmedina/mem_exp_ind-nature_2025/mem_stim_27.wav","0","main","","","true","mem_stim_27.wav","false","16","","0","miss"
"","","","","","html-keyboard-response","247","1079550","0.0-10.0-1.108","https://mcdermottlab.mit.edu/mturk_stimuli/bjmedina/mem_exp_ind-nature_2025/sequences/isi_16/len120/seq053_len120_tol0_s15_isi-1p0_0p0_16p0.json","11.1","true","5g0efzobl0q","","null","<span style=""font-size: 40px"">+</span>","null","","","","","","","","","",""
"","","","","","audio-button-response","248","1082283","0.0-10.0-2.108","https://mcdermottlab.mit.edu/mturk_stimuli/bjmedina/mem_exp_ind-nature_2025/sequences/isi_16/len120/seq053_len120_tol0_s15_isi-1p0_0p0_16p0.json","11.1","true","5g0efzobl0q","","2740","https://mcdermottlab.mit.edu/mturk_stimuli/bjmedina/mem_exp_ind-nature_2025/mem_stim_24.wav","2","main","","","true","mem_stim_24.wav","false","16","","0","miss"
"","","","","","html-keyboard-response","249","1082344","0.0-10.0-1.109","https://mcdermottlab.mit.edu/mturk_stimuli/bjmedina/mem_exp_ind-nature_2025/sequences/isi_16/len120/seq053_len120_tol0_s15_isi-1p0_0p0_16p0.json","11.1","true","5g0efzobl0q","","null","<span style=""font-size: 40px"">+</span>","null","","","","","","","","","",""
"","","","","","audio-button-response","250","1085844","0.0-10.0-2.109","https://mcdermottlab.mit.edu/mturk_stimuli/bjmedina/mem_exp_ind-nature_2025/sequences/isi_16/len120/seq053_len120_tol0_s15_isi-1p0_0p0_16p0.json","11.1","true","5g0efzobl0q","","2569","https://mcdermottlab.mit.edu/mturk_stimuli/bjmedina/mem_exp_ind-nature_2025/mem_stim_49.wav","2","main","","","false","mem_stim_49.wav","false","-1","","1","correct_rejection"
"","","","","","html-keyboard-response","251","1085921","0.0-10.0-1.110","https://mcdermottlab.mit.edu/mturk_stimuli/bjmedina/mem_exp_ind-nature_2025/sequences/isi_16/len120/seq053_len120_tol0_s15_isi-1p0_0p0_16p0.json","11.1","true","5g0efzobl0q","","null","<span style=""font-size: 40px"">+</span>","null","","","","","","","","","",""
"","","","","","audio-button-response","252","1088625","0.0-10.0-2.110","https://mcdermottlab.mit.edu/mturk_stimuli/bjmedina/mem_exp_ind-nature_2025/sequences/isi_16/len120/seq053_len120_tol0_s15_isi-1p0_0p0_16p0.json","11.1","true","5g0efzobl0q","","2511","https://mcdermottlab.mit.edu/mturk_stimuli/bjmedina/mem_exp_ind-nature_2025/mem_stim_65.wav","0","main","","","false","mem_stim_65.wav","false","-1","","1","correct_rejection"
"","","","","","html-keyboard-response","253","1088698","0.0-10.0-1.111","https://mcdermottlab.mit.edu/mturk_stimuli/bjmedina/mem_exp_ind-nature_2025/sequences/isi_16/len120/seq053_len120_tol0_s15_isi-1p0_0p0_16p0.json","11.1","true","5g0efzobl0q","","null","<span style=""font-size: 40px"">+</span>","null","","","","","","","","","",""
"","","","","","audio-button-response","254","1092155","0.0-10.0-2.111","https://mcdermottlab.mit.edu/mturk_stimuli/bjmedina/mem_exp_ind-nature_2025/sequences/isi_16/len120/seq053_len120_tol0_s15_isi-1p0_0p0_16p0.json","11.1","true","5g0efzobl0q","","3460","https://mcdermottlab.mit.edu/mturk_stimuli/bjmedina/mem_exp_ind-nature_2025/mem_stim_30.wav","2","main","","","true","mem_stim_30.wav","false","16","","0","miss"
"","","","","","html-keyboard-response","255","1092230","0.0-10.0-1.112","https://mcdermottlab.mit.edu/mturk_stimuli/bjmedina/mem_exp_ind-nature_2025/sequences/isi_16/len120/seq053_len120_tol0_s15_isi-1p0_0p0_16p0.json","11.1","true","5g0efzobl0q","","null","<span style=""font-size: 40px"">+</span>","null","","","","","","","","","",""
"","","","","","audio-button-response","256","1095846","0.0-10.0-2.112","https://mcdermottlab.mit.edu/mturk_stimuli/bjmedina/mem_exp_ind-nature_2025/sequences/isi_16/len120/seq053_len120_tol0_s15_isi-1p0_0p0_16p0.json","11.1","true","5g0efzobl0q","","2789","https://mcdermottlab.mit.edu/mturk_stimuli/bjmedina/mem_exp_ind-nature_2025/mem_stim_5.wav","0","main","","","false","mem_stim_5.wav","false","-1","","1","correct_rejection"
"","","","","","html-keyboard-response","257","1095915","0.0-10.0-1.113","https://mcdermottlab.mit.edu/mturk_stimuli/bjmedina/mem_exp_ind-nature_2025/sequences/isi_16/len120/seq053_len120_tol0_s15_isi-1p0_0p0_16p0.json","11.1","true","5g0efzobl0q","","null","<span style=""font-size: 40px"">+</span>","null","","","","","","","","","",""
"","","","","","audio-button-response","258","1099582","0.0-10.0-2.113","https://mcdermottlab.mit.edu/mturk_stimuli/bjmedina/mem_exp_ind-nature_2025/sequences/isi_16/len120/seq053_len120_tol0_s15_isi-1p0_0p0_16p0.json","11.1","true","5g0efzobl0q","","3669","https://mcdermottlab.mit.edu/mturk_stimuli/bjmedina/mem_exp_ind-nature_2025/mem_stim_5.wav","0","main","","","true","mem_stim_5.wav","true","0","","0","miss"
"","","","","","html-keyboard-response","259","1099651","0.0-10.0-1.114","https://mcdermottlab.mit.edu/mturk_stimuli/bjmedina/mem_exp_ind-nature_2025/sequences/isi_16/len120/seq053_len120_tol0_s15_isi-1p0_0p0_16p0.json","11.1","true","5g0efzobl0q","","null","<span style=""font-size: 40px"">+</span>","null","","","","","","","","","",""
"","","","","","audio-button-response","260","1102898","0.0-10.0-2.114","https://mcdermottlab.mit.edu/mturk_stimuli/bjmedina/mem_exp_ind-nature_2025/sequences/isi_16/len120/seq053_len120_tol0_s15_isi-1p0_0p0_16p0.json","11.1","true","5g0efzobl0q","","3251","https://mcdermottlab.mit.edu/mturk_stimuli/bjmedina/mem_exp_ind-nature_2025/mem_stim_31.wav","0","main","","","true","mem_stim_31.wav","false","16","","0","miss"
"","","","","","html-keyboard-response","261","1102964","0.0-10.0-1.115","https://mcdermottlab.mit.edu/mturk_stimuli/bjmedina/mem_exp_ind-nature_2025/sequences/isi_16/len120/seq053_len120_tol0_s15_isi-1p0_0p0_16p0.json","11.1","true","5g0efzobl0q","","null","<span style=""font-size: 40px"">+</span>","null","","","","","","","","","",""
