"success","timeout","failed_images","failed_audio","failed_video","trial_type","trial_index","time_elapsed","internal_node_id","sequence_file","pay","passed_hc","completion_code","view_history","rt","stimulus","response","stim_type","hc_answer","correct_hc","repeat","yt_id","catch","isi","type","is_correct","response_type"
"true","false","[]","[]","[]","preload","0","24","0.0-0.0","https://mcdermottlab.mit.edu/mturk_stimuli/bjmedina/mem_exp_ind-nature_2025/sequences/isi_16/len120/seq008_len120_s15_isi-1p0_0p0_16p0.json","10.870000000000001","true","l9vvaeojece","","","","","","","","","","","","","",""
"","","","","","instructions","1","1060","0.0-1.0","https://mcdermottlab.mit.edu/mturk_stimuli/bjmedina/mem_exp_ind-nature_2025/sequences/isi_16/len120/seq008_len120_s15_isi-1p0_0p0_16p0.json","10.870000000000001","true","l9vvaeojece","[{""page_index"":0,""viewing_time"":1035}]","1035","","","","","","","","","","","",""
"","","","","","instructions","2","1761","0.0-2.0","https://mcdermottlab.mit.edu/mturk_stimuli/bjmedina/mem_exp_ind-nature_2025/sequences/isi_16/len120/seq008_len120_s15_isi-1p0_0p0_16p0.json","10.870000000000001","true","l9vvaeojece","[{""page_index"":0,""viewing_time"":700}]","700","","","","","","","","","","","",""
"","","","","","audio-button-response","3","4521","0.0-3.0-0.0","https://mcdermottlab.mit.edu/mturk_stimuli/bjmedina/mem_exp_ind-nature_2025/sequences/isi_16/len120/seq008_len120_s15_isi-1p0_0p0_16p0.json","10.870000000000001","true","l9vvaeojece","","2661","https://mcdermottlab.mit.edu/bjmedina/experiments/mem_exp_v01/assets/noise_calib_stim.wav","1","","","","","","","","","",""
"","","","","","instructions","4","5576","0.0-4.0","https://mcdermottlab.mit.edu/mturk_stimuli/bjmedina/mem_exp_ind-nature_2025/sequences/isi_16/len120/seq008_len120_s15_isi-1p0_0p0_16p0.json","10.870000000000001","true","l9vvaeojece","[{""page_index"":0,""viewing_time"":1053}]","1053","","","","","","","","","","","",""
"","","","","","audio-button-response","5","10205","0.0-5.0-0.0","https://mcdermottlab.mit.edu/mturk_stimuli/bjmedina/mem_exp_ind-nature_2025/sequences/isi_16/len120/seq008_len120_s15_isi-1p0_0p0_16p0.json","10.870000000000001","true","l9vvaeojece","","4360","https://mcdermottlab.mit.edu/bjmedina/experiments/mem_exp_v01/assets/antiphase_HC_IOS.wav","2","hc","3","1","","","","","","",""
"","","","","","audio-button-response","6","14890","0.0-5.0-0.1","https://mcdermottlab.mit.edu/mturk_stimuli/bjmedina/mem_exp_ind-nature_2025/sequences/isi_16/len120/seq008_len120_s15_isi-1p0_0p0_16p0.json","10.870000000000001","true","l9vvaeojece","","4320","https://mcdermottlab.mit.edu/bjmedina/experiments/mem_exp_v01/assets/antiphase_HC_SIO.wav","0","hc","1","1","","","","","","",""
"","","","","","audio-button-response","7","19315","0.0-5.0-0.2","https://mcdermottlab.mit.edu/mturk_stimuli/bjmedina/mem_exp_ind-nature_2025/sequences/isi_16/len120/seq008_len120_s15_isi-1p0_0p0_16p0.json","10.870000000000001","true","l9vvaeojece","","4349","https://mcdermottlab.mit.edu/bjmedina/experiments/mem_exp_v01/assets/antiphase_HC_OSI.wav","1","hc","2","1","","","","","","",""
"","","","","","audio-button-response","8","23666","0.0-5.0-0.3","https://mcdermottlab.mit.edu/mturk_stimuli/bjmedina/mem_exp_ind-nature_2025/sequences/isi_16/len120/seq008_len120_s15_isi-1p0_0p0_16p0.json","10.870000000000001","true","l9vvaeojece","","4280","https://mcdermottlab.mit.edu/bjmedina/experiments/mem_exp_v01/assets/antiphase_HC_OIS.wav","2","hc","3","1","","","","","","",""
"","","","","","audio-button-response","9","28392","0.0-5.0-0.4","https://mcdermottlab.mit.edu/mturk_stimuli/bjmedina/mem_exp_ind-nature_2025/sequences/isi_16/len120/seq008_len120_s15_isi-1p0_0p0_16p0.json","10.870000000000001","true","l9vvaeojece","","4309","https://mcdermottlab.mit.edu/bjmedina/experiments/mem_exp_v01/assets/antiphase_HC_ISO.wav","1","hc","2","1","","","","","","",""
"","","","","","audio-button-response","10","32924","0.0-5.0-0.5","https://mcdermottlab.mit.edu/mturk_stimuli/bjmedina/mem_exp_ind-nature_2025/sequences/isi_16/len120/seq008_len120_s15_isi-1p0_0p0_16p0.json","10.870000000000001","true","l9vvaeojece","","4261","https://mcdermottlab.mit.edu/bjmedina/experiments/mem_exp_v01/assets/antiphase_HC_SOI.wav","0","hc","1","1","","","","","","",""
"","","","","","html-keyboard-response","11","34652","0.0-6.0","https://mcdermottlab.mit.edu/mturk_stimuli/bjmedina/mem_exp_ind-nature_2025/sequences/isi_16/len120/seq008_len120_s15_isi-1p0_0p0_16p0.json","10.870000000000001","true","l9vvaeojece","","1726","<h1>You have finished the LOUDNESS task!</h1> <p>Press space to continue</p>"," ","","","","","","","","","",""
"","","","","","instructions","12","91773","0.0-7.0","https://mcdermottlab.mit.edu/mturk_stimuli/bjmedina/mem_exp_ind-nature_2025/sequences/isi_16/len120/seq008_len120_s15_isi-1p0_0p0_16p0.json","10.870000000000001","true","l9vvaeojece","[{""page_index"":0,""viewing_time"":3137},{""page_index"":1,""viewing_time"":11441},{""page_index"":2,""viewing_time"":38398},{""page_index"":3,""viewing_time"":4144}]","57120","","","","","","","","","","","",""
"","","","","","html-keyboard-response","13","91826","0.0-8.0-0.0","https://mcdermottlab.mit.edu/mturk_stimuli/bjmedina/mem_exp_ind-nature_2025/sequences/isi_16/len120/seq008_len120_s15_isi-1p0_0p0_16p0.json","10.870000000000001","true","l9vvaeojece","","null","<span style=""font-size: 40px"">+</span>","null","fixation","","","","","","","","",""
"","","","","","audio-button-response","14","95451","0.0-8.0-1.0","https://mcdermottlab.mit.edu/mturk_stimuli/bjmedina/mem_exp_ind-nature_2025/sequences/isi_16/len120/seq008_len120_s15_isi-1p0_0p0_16p0.json","10.870000000000001","true","l9vvaeojece","","3131","https://mcdermottlab.mit.edu/mturk_stimuli/bjmedina/mem_exp_v05/mem_stim_1023_f32.wav","0","demo","","","0","","","","","",""
"","","","","","html-keyboard-response","15","95502","0.0-8.0-0.1","https://mcdermottlab.mit.edu/mturk_stimuli/bjmedina/mem_exp_ind-nature_2025/sequences/isi_16/len120/seq008_len120_s15_isi-1p0_0p0_16p0.json","10.870000000000001","true","l9vvaeojece","","null","<span style=""font-size: 40px"">+</span>","null","fixation","","","","","","","","",""
"","","","","","audio-button-response","16","98460","0.0-8.0-1.1","https://mcdermottlab.mit.edu/mturk_stimuli/bjmedina/mem_exp_ind-nature_2025/sequences/isi_16/len120/seq008_len120_s15_isi-1p0_0p0_16p0.json","10.870000000000001","true","l9vvaeojece","","2648","https://mcdermottlab.mit.edu/mturk_stimuli/bjmedina/mem_exp_v05/mem_stim_1022_f32.wav","0","demo","","","0","","","","","",""
"","","","","","html-keyboard-response","17","98512","0.0-8.0-0.2","https://mcdermottlab.mit.edu/mturk_stimuli/bjmedina/mem_exp_ind-nature_2025/sequences/isi_16/len120/seq008_len120_s15_isi-1p0_0p0_16p0.json","10.870000000000001","true","l9vvaeojece","","null","<span style=""font-size: 40px"">+</span>","null","fixation","","","","","","","","",""
"","","","","","audio-button-response","18","102506","0.0-8.0-1.2","https://mcdermottlab.mit.edu/mturk_stimuli/bjmedina/mem_exp_ind-nature_2025/sequences/isi_16/len120/seq008_len120_s15_isi-1p0_0p0_16p0.json","10.870000000000001","true","l9vvaeojece","","3989","https://mcdermottlab.mit.edu/mturk_stimuli/bjmedina/mem_exp_v05/mem_stim_1022_f32.wav","3","demo","","","1","","","","","",""
"","","","","","html-keyboard-response","19","102559","0.0-8.0-0.3","https://mcdermottlab.mit.edu/mturk_stimuli/bjmedina/mem_exp_ind-nature_2025/sequences/isi_16/len120/seq008_len120_s15_isi-1p0_0p0_16p0.json","10.870000000000001","true","l9vvaeojece","","null","<span style=""font-size: 40px"">+</span>","null","fixation","","","","","","","","",""
"","","","","","audio-button-response","20","105367","0.0-8.0-1.3","https://mcdermottlab.mit.edu/mturk_stimuli/bjmedina/mem_exp_ind-nature_2025/sequences/isi_16/len120/seq008_len120_s15_isi-1p0_0p0_16p0.json","10.870000000000001","true","l9vvaeojece","","2400","https://mcdermottlab.mit.edu/mturk_stimuli/bjmedina/mem_exp_v05/mem_stim_1021_f32.wav","2","demo","","","0","","","","","",""
"","","","","","html-keyboard-response","21","105420","0.0-8.0-0.4","https://mcdermottlab.mit.edu/mturk_stimuli/bjmedina/mem_exp_ind-nature_2025/sequences/isi_16/len120/seq008_len120_s15_isi-1p0_0p0_16p0.json","10.870000000000001","true","l9vvaeojece","","null","<span style=""font-size: 40px"">+</span>","null","fixation","","","","","","","","",""
"","","","","","audio-button-response","22","107845","0.0-8.0-1.4","https://mcdermottlab.mit.edu/mturk_stimuli/bjmedina/mem_exp_ind-nature_2025/sequences/isi_16/len120/seq008_len120_s15_isi-1p0_0p0_16p0.json","10.870000000000001","true","l9vvaeojece","","2421","https://mcdermottlab.mit.edu/mturk_stimuli/bjmedina/mem_exp_v05/mem_stim_1023_f32.wav","3","demo","","","1","","","","","",""
"","","","","","html-keyboard-response","23","107897","0.0-8.0-0.5","https://mcdermottlab.mit.edu/mturk_stimuli/bjmedina/mem_exp_ind-nature_2025/sequences/isi_16/len120/seq008_len120_s15_isi-1p0_0p0_16p0.json","10.870000000000001","true","l9vvaeojece","","null","<span style=""font-size: 40px"">+</span>","null","fixation","","","","","","","","",""
"","","","","","audio-button-response","24","110791","0.0-8.0-1.5","https://mcdermottlab.mit.edu/mturk_stimuli/bjmedina/mem_exp_ind-nature_2025/sequences/isi_16/len120/seq008_len120_s15_isi-1p0_0p0_16p0.json","10.870000000000001","true","l9vvaeojece","","2509","https://mcdermottlab.mit.edu/mturk_stimuli/bjmedina/mem_exp_v05/mem_stim_1020_f32.wav","0","demo","","","0","","","","","",""
"","","","","","html-keyboard-response","25","110842","0.0-8.0-0.6","https://mcdermottlab.mit.edu/mturk_stimuli/bjmedina/mem_exp_ind-nature_2025/sequences/isi_16/len120/seq008_len120_s15_isi-1p0_0p0_16p0.json","10.870000000000001","true","l9vvaeojece","","null","<span style=""font-size: 40px"">+</span>","null","fixation","","","","","","","","",""
"","","","","","audio-button-response","26","113566","0.0-8.0-1.6","https://mcdermottlab.mit.edu/mturk_stimuli/bjmedina/mem_exp_ind-nature_2025/sequences/isi_16/len120/seq008_len120_s15_isi-1p0_0p0_16p0.json","10.870000000000001","true","l9vvaeojece","","2411","https://mcdermottlab.mit.edu/mturk_stimuli/bjmedina/mem_exp_v05/mem_stim_1019_f32.wav","0","demo","","","0","","","","","",""
"","","","","","html-keyboard-response","27","113617","0.0-8.0-0.7","https://mcdermottlab.mit.edu/mturk_stimuli/bjmedina/mem_exp_ind-nature_2025/sequences/isi_16/len120/seq008_len120_s15_isi-1p0_0p0_16p0.json","10.870000000000001","true","l9vvaeojece","","null","<span style=""font-size: 40px"">+</span>","null","fixation","","","","","","","","",""
"","","","","","audio-button-response","28","116161","0.0-8.0-1.7","https://mcdermottlab.mit.edu/mturk_stimuli/bjmedina/mem_exp_ind-nature_2025/sequences/isi_16/len120/seq008_len120_s15_isi-1p0_0p0_16p0.json","10.870000000000001","true","l9vvaeojece","","2541","https://mcdermottlab.mit.edu/mturk_stimuli/bjmedina/mem_exp_v05/mem_stim_1021_f32.wav","2","demo","","","1","","","","","",""
"","","","","","html-keyboard-response","29","117404","0.0-9.0","https://mcdermottlab.mit.edu/mturk_stimuli/bjmedina/mem_exp_ind-nature_2025/sequences/isi_16/len120/seq008_len120_s15_isi-1p0_0p0_16p0.json","10.870000000000001","true","l9vvaeojece","","1242","<p>You are now ready to start the experiment. Press SPACE when you are ready to start.</p>"," ","","","","","","","","","",""
"","","","","","html-keyboard-response","30","117456","0.0-10.0-1.0","https://mcdermottlab.mit.edu/mturk_stimuli/bjmedina/mem_exp_ind-nature_2025/sequences/isi_16/len120/seq008_len120_s15_isi-1p0_0p0_16p0.json","10.870000000000001","true","l9vvaeojece","","null","<span style=""font-size: 40px"">+</span>","null","","","","","","","","","",""
"","","","","","audio-button-response","31","120269","0.0-10.0-2.0","https://mcdermottlab.mit.edu/mturk_stimuli/bjmedina/mem_exp_ind-nature_2025/sequences/isi_16/len120/seq008_len120_s15_isi-1p0_0p0_16p0.json","10.870000000000001","true","l9vvaeojece","","2451","https://mcdermottlab.mit.edu/mturk_stimuli/bjmedina/mem_exp_ind-nature_2025/mem_stim_50.wav","0","main","","","false","mem_stim_50.wav","false","-1","","1","correct_rejection"
"","","","","","html-keyboard-response","32","120326","0.0-10.0-1.1","https://mcdermottlab.mit.edu/mturk_stimuli/bjmedina/mem_exp_ind-nature_2025/sequences/isi_16/len120/seq008_len120_s15_isi-1p0_0p0_16p0.json","10.870000000000001","true","l9vvaeojece","","null","<span style=""font-size: 40px"">+</span>","null","","","","","","","","","",""
"","","","","","audio-button-response","33","123183","0.0-10.0-2.1","https://mcdermottlab.mit.edu/mturk_stimuli/bjmedina/mem_exp_ind-nature_2025/sequences/isi_16/len120/seq008_len120_s15_isi-1p0_0p0_16p0.json","10.870000000000001","true","l9vvaeojece","","2509","https://mcdermottlab.mit.edu/mturk_stimuli/bjmedina/mem_exp_ind-nature_2025/mem_stim_54.wav","0","main","","","false","mem_stim_54.wav","false","-1","","1","correct_rejection"
"","","","","","html-keyboard-response","34","123242","0.0-10.0-1.2","https://mcdermottlab.mit.edu/mturk_stimuli/bjmedina/mem_exp_ind-nature_2025/sequences/isi_16/len120/seq008_len120_s15_isi-1p0_0p0_16p0.json","10.870000000000001","true","l9vvaeojece","","null","<span style=""font-size: 40px"">+</span>","null","","","","","","","","","",""
"","","","","","audio-button-response","35","125920","0.0-10.0-2.2","https://mcdermottlab.mit.edu/mturk_stimuli/bjmedina/mem_exp_ind-nature_2025/sequences/isi_16/len120/seq008_len120_s15_isi-1p0_0p0_16p0.json","10.870000000000001","true","l9vvaeojece","","2389","https://mcdermottlab.mit.edu/mturk_stimuli/bjmedina/mem_exp_ind-nature_2025/mem_stim_10.wav","0","main","","","false","mem_stim_10.wav","false","-1","","1","correct_rejection"
"","","","","","html-keyboard-response","36","125981","0.0-10.0-1.3","https://mcdermottlab.mit.edu/mturk_stimuli/bjmedina/mem_exp_ind-nature_2025/sequences/isi_16/len120/seq008_len120_s15_isi-1p0_0p0_16p0.json","10.870000000000001","true","l9vvaeojece","","null","<span style=""font-size: 40px"">+</span>","null","","","","","","","","","",""
"","","","","","audio-button-response","37","128634","0.0-10.0-2.3","https://mcdermottlab.mit.edu/mturk_stimuli/bjmedina/mem_exp_ind-nature_2025/sequences/isi_16/len120/seq008_len120_s15_isi-1p0_0p0_16p0.json","10.870000000000001","true","l9vvaeojece","","2440","https://mcdermottlab.mit.edu/mturk_stimuli/bjmedina/mem_exp_ind-nature_2025/mem_stim_3.wav","0","main","","","false","mem_stim_3.wav","false","-1","","1","correct_rejection"
"","","","","","html-keyboard-response","38","128688","0.0-10.0-1.4","https://mcdermottlab.mit.edu/mturk_stimuli/bjmedina/mem_exp_ind-nature_2025/sequences/isi_16/len120/seq008_len120_s15_isi-1p0_0p0_16p0.json","10.870000000000001","true","l9vvaeojece","","null","<span style=""font-size: 40px"">+</span>","null","","","","","","","","","",""
"","","","","","audio-button-response","39","132043","0.0-10.0-2.4","https://mcdermottlab.mit.edu/mturk_stimuli/bjmedina/mem_exp_ind-nature_2025/sequences/isi_16/len120/seq008_len120_s15_isi-1p0_0p0_16p0.json","10.870000000000001","true","l9vvaeojece","","3120","https://mcdermottlab.mit.edu/mturk_stimuli/bjmedina/mem_exp_ind-nature_2025/mem_stim_0.wav","2","main","","","false","mem_stim_0.wav","false","-1","","1","correct_rejection"
"","","","","","html-keyboard-response","40","132097","0.0-10.0-1.5","https://mcdermottlab.mit.edu/mturk_stimuli/bjmedina/mem_exp_ind-nature_2025/sequences/isi_16/len120/seq008_len120_s15_isi-1p0_0p0_16p0.json","10.870000000000001","true","l9vvaeojece","","null","<span style=""font-size: 40px"">+</span>","null","","","","","","","","","",""
"","","","","","audio-button-response","41","134718","0.0-10.0-2.5","https://mcdermottlab.mit.edu/mturk_stimuli/bjmedina/mem_exp_ind-nature_2025/sequences/isi_16/len120/seq008_len120_s15_isi-1p0_0p0_16p0.json","10.870000000000001","true","l9vvaeojece","","2371","https://mcdermottlab.mit.edu/mturk_stimuli/bjmedina/mem_exp_ind-nature_2025/mem_stim_4.wav","0","main","","","false","mem_stim_4.wav","false","-1","","1","correct_rejection"
"","","","","","html-keyboard-response","42","134779","0.0-10.0-1.6","https://mcdermottlab.mit.edu/mturk_stimuli/bjmedina/mem_exp_ind-nature_2025/sequences/isi_16/len120/seq008_len120_s15_isi-1p0_0p0_16p0.json","10.870000000000001","true","l9vvaeojece","","null","<span style=""font-size: 40px"">+</span>","null","","","","","","","","","",""
"","","","","","audio-button-response","43","137359","0.0-10.0-2.6","https://mcdermottlab.mit.edu/mturk_stimuli/bjmedina/mem_exp_ind-nature_2025/sequences/isi_16/len120/seq008_len120_s15_isi-1p0_0p0_16p0.json","10.870000000000001","true","l9vvaeojece","","2429","https://mcdermottlab.mit.edu/mturk_stimuli/bjmedina/mem_exp_ind-nature_2025/mem_stim_59.wav","0","main","","","false","mem_stim_59.wav","false","-1","","1","correct_rejection"
"","","","","","html-keyboard-response","44","137418","0.0-10.0-1.7","https://mcdermottlab.mit.edu/mturk_stimuli/bjmedina/mem_exp_ind-nature_2025/sequences/isi_16/len120/seq008_len120_s15_isi-1p0_0p0_16p0.json","10.870000000000001","true","l9vvaeojece","","null","<span style=""font-size: 40px"">+</span>","null","","","","","","","","","",""
"","","","","","audio-button-response","45","140097","0.0-10.0-2.7","https://mcdermottlab.mit.edu/mturk_stimuli/bjmedina/mem_exp_ind-nature_2025/sequences/isi_16/len120/seq008_len120_s15_isi-1p0_0p0_16p0.json","10.870000000000001","true","l9vvaeojece","","2421","https://mcdermottlab.mit.edu/mturk_stimuli/bjmedina/mem_exp_ind-nature_2025/mem_stim_5.wav","0","main","","","false","mem_stim_5.wav","false","-1","","1","correct_rejection"
"","","","","","html-keyboard-response","46","140158","0.0-10.0-1.8","https://mcdermottlab.mit.edu/mturk_stimuli/bjmedina/mem_exp_ind-nature_2025/sequences/isi_16/len120/seq008_len120_s15_isi-1p0_0p0_16p0.json","10.870000000000001","true","l9vvaeojece","","null","<span style=""font-size: 40px"">+</span>","null","","","","","","","","","",""
"","","","","","audio-button-response","47","142577","0.0-10.0-2.8","https://mcdermottlab.mit.edu/mturk_stimuli/bjmedina/mem_exp_ind-nature_2025/sequences/isi_16/len120/seq008_len120_s15_isi-1p0_0p0_16p0.json","10.870000000000001","true","l9vvaeojece","","2141","https://mcdermottlab.mit.edu/mturk_stimuli/bjmedina/mem_exp_ind-nature_2025/mem_stim_37.wav","0","main","","","false","mem_stim_37.wav","false","-1","","1","correct_rejection"
"","","","","","html-keyboard-response","48","142636","0.0-10.0-1.9","https://mcdermottlab.mit.edu/mturk_stimuli/bjmedina/mem_exp_ind-nature_2025/sequences/isi_16/len120/seq008_len120_s15_isi-1p0_0p0_16p0.json","10.870000000000001","true","l9vvaeojece","","null","<span style=""font-size: 40px"">+</span>","null","","","","","","","","","",""
"","","","","","audio-button-response","49","144714","0.0-10.0-2.9","https://mcdermottlab.mit.edu/mturk_stimuli/bjmedina/mem_exp_ind-nature_2025/sequences/isi_16/len120/seq008_len120_s15_isi-1p0_0p0_16p0.json","10.870000000000001","true","l9vvaeojece","","2080","https://mcdermottlab.mit.edu/mturk_stimuli/bjmedina/mem_exp_ind-nature_2025/mem_stim_37.wav","3","main","","","true","mem_stim_37.wav","true","0","","0","miss"
"","","","","","html-keyboard-response","50","144774","0.0-10.0-1.10","https://mcdermottlab.mit.edu/mturk_stimuli/bjmedina/mem_exp_ind-nature_2025/sequences/isi_16/len120/seq008_len120_s15_isi-1p0_0p0_16p0.json","10.870000000000001","true","l9vvaeojece","","null","<span style=""font-size: 40px"">+</span>","null","","","","","","","","","",""
"","","","","","audio-button-response","51","147499","0.0-10.0-2.10","https://mcdermottlab.mit.edu/mturk_stimuli/bjmedina/mem_exp_ind-nature_2025/sequences/isi_16/len120/seq008_len120_s15_isi-1p0_0p0_16p0.json","10.870000000000001","true","l9vvaeojece","","2488","https://mcdermottlab.mit.edu/mturk_stimuli/bjmedina/mem_exp_ind-nature_2025/mem_stim_31.wav","0","main","","","false","mem_stim_31.wav","false","-1","","1","correct_rejection"
"","","","","","html-keyboard-response","52","147561","0.0-10.0-1.11","https://mcdermottlab.mit.edu/mturk_stimuli/bjmedina/mem_exp_ind-nature_2025/sequences/isi_16/len120/seq008_len120_s15_isi-1p0_0p0_16p0.json","10.870000000000001","true","l9vvaeojece","","null","<span style=""font-size: 40px"">+</span>","null","","","","","","","","","",""
"","","","","","audio-button-response","53","150034","0.0-10.0-2.11","https://mcdermottlab.mit.edu/mturk_stimuli/bjmedina/mem_exp_ind-nature_2025/sequences/isi_16/len120/seq008_len120_s15_isi-1p0_0p0_16p0.json","10.870000000000001","true","l9vvaeojece","","2469","https://mcdermottlab.mit.edu/mturk_stimuli/bjmedina/mem_exp_ind-nature_2025/mem_stim_31.wav","3","main","","","true","mem_stim_31.wav","true","0","","0","miss"
"","","","","","html-keyboard-response","54","150088","0.0-10.0-1.12","https://mcdermottlab.mit.edu/mturk_stimuli/bjmedina/mem_exp_ind-nature_2025/sequences/isi_16/len120/seq008_len120_s15_isi-1p0_0p0_16p0.json","10.870000000000001","true","l9vvaeojece","","null","<span style=""font-size: 40px"">+</span>","null","","","","","","","","","",""
"","","","","","audio-button-response","55","153217","0.0-10.0-2.12","https://mcdermottlab.mit.edu/mturk_stimuli/bjmedina/mem_exp_ind-nature_2025/sequences/isi_16/len120/seq008_len120_s15_isi-1p0_0p0_16p0.json","10.870000000000001","true","l9vvaeojece","","2928","https://mcdermottlab.mit.edu/mturk_stimuli/bjmedina/mem_exp_ind-nature_2025/mem_stim_76.wav","0","main","","","false","mem_stim_76.wav","false","-1","","1","correct_rejection"
"","","","","","html-keyboard-response","56","153278","0.0-10.0-1.13","https://mcdermottlab.mit.edu/mturk_stimuli/bjmedina/mem_exp_ind-nature_2025/sequences/isi_16/len120/seq008_len120_s15_isi-1p0_0p0_16p0.json","10.870000000000001","true","l9vvaeojece","","null","<span style=""font-size: 40px"">+</span>","null","","","","","","","","","",""
"","","","","","audio-button-response","57","158728","0.0-10.0-2.13","https://mcdermottlab.mit.edu/mturk_stimuli/bjmedina/mem_exp_ind-nature_2025/sequences/isi_16/len120/seq008_len120_s15_isi-1p0_0p0_16p0.json","10.870000000000001","true","l9vvaeojece","","5181","https://mcdermottlab.mit.edu/mturk_stimuli/bjmedina/mem_exp_ind-nature_2025/mem_stim_12.wav","0","main","","","false","mem_stim_12.wav","false","-1","","1","correct_rejection"
"","","","","","html-keyboard-response","58","158783","0.0-10.0-1.14","https://mcdermottlab.mit.edu/mturk_stimuli/bjmedina/mem_exp_ind-nature_2025/sequences/isi_16/len120/seq008_len120_s15_isi-1p0_0p0_16p0.json","10.870000000000001","true","l9vvaeojece","","null","<span style=""font-size: 40px"">+</span>","null","","","","","","","","","",""
"","","","","","audio-button-response","59","161594","0.0-10.0-2.14","https://mcdermottlab.mit.edu/mturk_stimuli/bjmedina/mem_exp_ind-nature_2025/sequences/isi_16/len120/seq008_len120_s15_isi-1p0_0p0_16p0.json","10.870000000000001","true","l9vvaeojece","","2451","https://mcdermottlab.mit.edu/mturk_stimuli/bjmedina/mem_exp_ind-nature_2025/mem_stim_14.wav","0","main","","","false","mem_stim_14.wav","false","-1","","1","correct_rejection"
"","","","","","html-keyboard-response","60","161648","0.0-10.0-1.15","https://mcdermottlab.mit.edu/mturk_stimuli/bjmedina/mem_exp_ind-nature_2025/sequences/isi_16/len120/seq008_len120_s15_isi-1p0_0p0_16p0.json","10.870000000000001","true","l9vvaeojece","","null","<span style=""font-size: 40px"">+</span>","null","","","","","","","","","",""
"","","","","","audio-button-response","61","164207","0.0-10.0-2.15","https://mcdermottlab.mit.edu/mturk_stimuli/bjmedina/mem_exp_ind-nature_2025/sequences/isi_16/len120/seq008_len120_s15_isi-1p0_0p0_16p0.json","10.870000000000001","true","l9vvaeojece","","2349","https://mcdermottlab.mit.edu/mturk_stimuli/bjmedina/mem_exp_ind-nature_2025/mem_stim_55.wav","0","main","","","false","mem_stim_55.wav","false","-1","","1","correct_rejection"
"","","","","","html-keyboard-response","62","164269","0.0-10.0-1.16","https://mcdermottlab.mit.edu/mturk_stimuli/bjmedina/mem_exp_ind-nature_2025/sequences/isi_16/len120/seq008_len120_s15_isi-1p0_0p0_16p0.json","10.870000000000001","true","l9vvaeojece","","null","<span style=""font-size: 40px"">+</span>","null","","","","","","","","","",""
"","","","","","audio-button-response","63","166879","0.0-10.0-2.16","https://mcdermottlab.mit.edu/mturk_stimuli/bjmedina/mem_exp_ind-nature_2025/sequences/isi_16/len120/seq008_len120_s15_isi-1p0_0p0_16p0.json","10.870000000000001","true","l9vvaeojece","","2421","https://mcdermottlab.mit.edu/mturk_stimuli/bjmedina/mem_exp_ind-nature_2025/mem_stim_67.wav","0","main","","","false","mem_stim_67.wav","false","-1","","1","correct_rejection"
"","","","","","html-keyboard-response","64","166936","0.0-10.0-1.17","https://mcdermottlab.mit.edu/mturk_stimuli/bjmedina/mem_exp_ind-nature_2025/sequences/isi_16/len120/seq008_len120_s15_isi-1p0_0p0_16p0.json","10.870000000000001","true","l9vvaeojece","","null","<span style=""font-size: 40px"">+</span>","null","","","","","","","","","",""
"","","","","","audio-button-response","65","169456","0.0-10.0-2.17","https://mcdermottlab.mit.edu/mturk_stimuli/bjmedina/mem_exp_ind-nature_2025/sequences/isi_16/len120/seq008_len120_s15_isi-1p0_0p0_16p0.json","10.870000000000001","true","l9vvaeojece","","2520","https://mcdermottlab.mit.edu/mturk_stimuli/bjmedina/mem_exp_ind-nature_2025/mem_stim_50.wav","3","main","","","true","mem_stim_50.wav","false","16","","0","miss"
"","","","","","html-keyboard-response","66","169511","0.0-10.0-1.18","https://mcdermottlab.mit.edu/mturk_stimuli/bjmedina/mem_exp_ind-nature_2025/sequences/isi_16/len120/seq008_len120_s15_isi-1p0_0p0_16p0.json","10.870000000000001","true","l9vvaeojece","","null","<span style=""font-size: 40px"">+</span>","null","","","","","","","","","",""
"","","","","","audio-button-response","67","172017","0.0-10.0-2.18","https://mcdermottlab.mit.edu/mturk_stimuli/bjmedina/mem_exp_ind-nature_2025/sequences/isi_16/len120/seq008_len120_s15_isi-1p0_0p0_16p0.json","10.870000000000001","true","l9vvaeojece","","2501","https://mcdermottlab.mit.edu/mturk_stimuli/bjmedina/mem_exp_ind-nature_2025/mem_stim_54.wav","3","main","","","true","mem_stim_54.wav","false","16","","0","miss"
"","","","","","html-keyboard-response","68","172072","0.0-10.0-1.19","https://mcdermottlab.mit.edu/mturk_stimuli/bjmedina/mem_exp_ind-nature_2025/sequences/isi_16/len120/seq008_len120_s15_isi-1p0_0p0_16p0.json","10.870000000000001","true","l9vvaeojece","","null","<span style=""font-size: 40px"">+</span>","null","","","","","","","","","",""
"","","","","","audio-button-response","69","174618","0.0-10.0-2.19","https://mcdermottlab.mit.edu/mturk_stimuli/bjmedina/mem_exp_ind-nature_2025/sequences/isi_16/len120/seq008_len120_s15_isi-1p0_0p0_16p0.json","10.870000000000001","true","l9vvaeojece","","2339","https://mcdermottlab.mit.edu/mturk_stimuli/bjmedina/mem_exp_ind-nature_2025/mem_stim_71.wav","0","main","","","false","mem_stim_71.wav","false","-1","","1","correct_rejection"
"","","","","","html-keyboard-response","70","174681","0.0-10.0-1.20","https://mcdermottlab.mit.edu/mturk_stimuli/bjmedina/mem_exp_ind-nature_2025/sequences/isi_16/len120/seq008_len120_s15_isi-1p0_0p0_16p0.json","10.870000000000001","true","l9vvaeojece","","null","<span style=""font-size: 40px"">+</span>","null","","","","","","","","","",""
"","","","","","audio-button-response","71","177319","0.0-10.0-2.20","https://mcdermottlab.mit.edu/mturk_stimuli/bjmedina/mem_exp_ind-nature_2025/sequences/isi_16/len120/seq008_len120_s15_isi-1p0_0p0_16p0.json","10.870000000000001","true","l9vvaeojece","","2400","https://mcdermottlab.mit.edu/mturk_stimuli/bjmedina/mem_exp_ind-nature_2025/mem_stim_53.wav","0","main","","","false","mem_stim_53.wav","false","-1","","1","correct_rejection"
"","","","","","html-keyboard-response","72","177382","0.0-10.0-1.21","https://mcdermottlab.mit.edu/mturk_stimuli/bjmedina/mem_exp_ind-nature_2025/sequences/isi_16/len120/seq008_len120_s15_isi-1p0_0p0_16p0.json","10.870000000000001","true","l9vvaeojece","","null","<span style=""font-size: 40px"">+</span>","null","","","","","","","","","",""
"","","","","","audio-button-response","73","180267","0.0-10.0-2.21","https://mcdermottlab.mit.edu/mturk_stimuli/bjmedina/mem_exp_ind-nature_2025/sequences/isi_16/len120/seq008_len120_s15_isi-1p0_0p0_16p0.json","10.870000000000001","true","l9vvaeojece","","2629","https://mcdermottlab.mit.edu/mturk_stimuli/bjmedina/mem_exp_ind-nature_2025/mem_stim_61.wav","0","main","","","false","mem_stim_61.wav","false","-1","","1","correct_rejection"
"","","","","","html-keyboard-response","74","180328","0.0-10.0-1.22","https://mcdermottlab.mit.edu/mturk_stimuli/bjmedina/mem_exp_ind-nature_2025/sequences/isi_16/len120/seq008_len120_s15_isi-1p0_0p0_16p0.json","10.870000000000001","true","l9vvaeojece","","null","<span style=""font-size: 40px"">+</span>","null","","","","","","","","","",""
"","","","","","audio-button-response","75","182932","0.0-10.0-2.22","https://mcdermottlab.mit.edu/mturk_stimuli/bjmedina/mem_exp_ind-nature_2025/sequences/isi_16/len120/seq008_len120_s15_isi-1p0_0p0_16p0.json","10.870000000000001","true","l9vvaeojece","","2371","https://mcdermottlab.mit.edu/mturk_stimuli/bjmedina/mem_exp_ind-nature_2025/mem_stim_17.wav","3","main","","","false","mem_stim_17.wav","false","-1","","1","correct_rejection"
"","","","","","html-keyboard-response","76","182987","0.0-10.0-1.23","https://mcdermottlab.mit.edu/mturk_stimuli/bjmedina/mem_exp_ind-nature_2025/sequences/isi_16/len120/seq008_len120_s15_isi-1p0_0p0_16p0.json","10.870000000000001","true","l9vvaeojece","","null","<span style=""font-size: 40px"">+</span>","null","","","","","","","","","",""
"","","","","","audio-button-response","77","185512","0.0-10.0-2.23","https://mcdermottlab.mit.edu/mturk_stimuli/bjmedina/mem_exp_ind-nature_2025/sequences/isi_16/len120/seq008_len120_s15_isi-1p0_0p0_16p0.json","10.870000000000001","true","l9vvaeojece","","2520","https://mcdermottlab.mit.edu/mturk_stimuli/bjmedina/mem_exp_ind-nature_2025/mem_stim_59.wav","3","main","","","true","mem_stim_59.wav","false","16","","0","miss"
"","","","","","html-keyboard-response","78","185574","0.0-10.0-1.24","https://mcdermottlab.mit.edu/mturk_stimuli/bjmedina/mem_exp_ind-nature_2025/sequences/isi_16/len120/seq008_len120_s15_isi-1p0_0p0_16p0.json","10.870000000000001","true","l9vvaeojece","","null","<span style=""font-size: 40px"">+</span>","null","","","","","","","","","",""
"","","","","","audio-button-response","79","188791","0.0-10.0-2.24","https://mcdermottlab.mit.edu/mturk_stimuli/bjmedina/mem_exp_ind-nature_2025/sequences/isi_16/len120/seq008_len120_s15_isi-1p0_0p0_16p0.json","10.870000000000001","true","l9vvaeojece","","2949","https://mcdermottlab.mit.edu/mturk_stimuli/bjmedina/mem_exp_ind-nature_2025/mem_stim_72.wav","0","main","","","false","mem_stim_72.wav","false","-1","","1","correct_rejection"
"","","","","","html-keyboard-response","80","188846","0.0-10.0-1.25","https://mcdermottlab.mit.edu/mturk_stimuli/bjmedina/mem_exp_ind-nature_2025/sequences/isi_16/len120/seq008_len120_s15_isi-1p0_0p0_16p0.json","10.870000000000001","true","l9vvaeojece","","null","<span style=""font-size: 40px"">+</span>","null","","","","","","","","","",""
"","","","","","audio-button-response","81","191519","0.0-10.0-2.25","https://mcdermottlab.mit.edu/mturk_stimuli/bjmedina/mem_exp_ind-nature_2025/sequences/isi_16/len120/seq008_len120_s15_isi-1p0_0p0_16p0.json","10.870000000000001","true","l9vvaeojece","","2421","https://mcdermottlab.mit.edu/mturk_stimuli/bjmedina/mem_exp_ind-nature_2025/mem_stim_69.wav","2","main","","","false","mem_stim_69.wav","false","-1","","1","correct_rejection"
"","","","","","html-keyboard-response","82","191583","0.0-10.0-1.26","https://mcdermottlab.mit.edu/mturk_stimuli/bjmedina/mem_exp_ind-nature_2025/sequences/isi_16/len120/seq008_len120_s15_isi-1p0_0p0_16p0.json","10.870000000000001","true","l9vvaeojece","","null","<span style=""font-size: 40px"">+</span>","null","","","","","","","","","",""
"","","","","","audio-button-response","83","194268","0.0-10.0-2.26","https://mcdermottlab.mit.edu/mturk_stimuli/bjmedina/mem_exp_ind-nature_2025/sequences/isi_16/len120/seq008_len120_s15_isi-1p0_0p0_16p0.json","10.870000000000001","true","l9vvaeojece","","2440","https://mcdermottlab.mit.edu/mturk_stimuli/bjmedina/mem_exp_ind-nature_2025/mem_stim_56.wav","0","main","","","false","mem_stim_56.wav","false","-1","","1","correct_rejection"
"","","","","","html-keyboard-response","84","194323","0.0-10.0-1.27","https://mcdermottlab.mit.edu/mturk_stimuli/bjmedina/mem_exp_ind-nature_2025/sequences/isi_16/len120/seq008_len120_s15_isi-1p0_0p0_16p0.json","10.870000000000001","true","l9vvaeojece","","null","<span style=""font-size: 40px"">+</span>","null","","","","","","","","","",""
"","","","","","audio-button-response","85","197232","0.0-10.0-2.27","https://mcdermottlab.mit.edu/mturk_stimuli/bjmedina/mem_exp_ind-nature_2025/sequences/isi_16/len120/seq008_len120_s15_isi-1p0_0p0_16p0.json","10.870000000000001","true","l9vvaeojece","","2709","https://mcdermottlab.mit.edu/mturk_stimuli/bjmedina/mem_exp_ind-nature_2025/mem_stim_27.wav","2","main","","","false","mem_stim_27.wav","false","-1","","1","correct_rejection"
"","","","","","html-keyboard-response","86","197296","0.0-10.0-1.28","https://mcdermottlab.mit.edu/mturk_stimuli/bjmedina/mem_exp_ind-nature_2025/sequences/isi_16/len120/seq008_len120_s15_isi-1p0_0p0_16p0.json","10.870000000000001","true","l9vvaeojece","","null","<span style=""font-size: 40px"">+</span>","null","","","","","","","","","",""
"","","","","","audio-button-response","87","199999","0.0-10.0-2.28","https://mcdermottlab.mit.edu/mturk_stimuli/bjmedina/mem_exp_ind-nature_2025/sequences/isi_16/len120/seq008_len120_s15_isi-1p0_0p0_16p0.json","10.870000000000001","true","l9vvaeojece","","2461","https://mcdermottlab.mit.edu/mturk_stimuli/bjmedina/mem_exp_ind-nature_2025/mem_stim_28.wav","0","main","","","false","mem_stim_28.wav","false","-1","","1","correct_rejection"
"","","","","","html-keyboard-response","88","200069","0.0-10.0-1.29","https://mcdermottlab.mit.edu/mturk_stimuli/bjmedina/mem_exp_ind-nature_2025/sequences/isi_16/len120/seq008_len120_s15_isi-1p0_0p0_16p0.json","10.870000000000001","true","l9vvaeojece","","null","<span style=""font-size: 40px"">+</span>","null","","","","","","","","","",""
"","","","","","audio-button-response","89","202771","0.0-10.0-2.29","https://mcdermottlab.mit.edu/mturk_stimuli/bjmedina/mem_exp_ind-nature_2025/sequences/isi_16/len120/seq008_len120_s15_isi-1p0_0p0_16p0.json","10.870000000000001","true","l9vvaeojece","","2432","https://mcdermottlab.mit.edu/mturk_stimuli/bjmedina/mem_exp_ind-nature_2025/mem_stim_33.wav","0","main","","","false","mem_stim_33.wav","false","-1","","1","correct_rejection"
"","","","","","html-keyboard-response","90","202834","0.0-10.0-1.30","https://mcdermottlab.mit.edu/mturk_stimuli/bjmedina/mem_exp_ind-nature_2025/sequences/isi_16/len120/seq008_len120_s15_isi-1p0_0p0_16p0.json","10.870000000000001","true","l9vvaeojece","","null","<span style=""font-size: 40px"">+</span>","null","","","","","","","","","",""
"","","","","","audio-button-response","91","205200","0.0-10.0-2.30","https://mcdermottlab.mit.edu/mturk_stimuli/bjmedina/mem_exp_ind-nature_2025/sequences/isi_16/len120/seq008_len120_s15_isi-1p0_0p0_16p0.json","10.870000000000001","true","l9vvaeojece","","2371","https://mcdermottlab.mit.edu/mturk_stimuli/bjmedina/mem_exp_ind-nature_2025/mem_stim_33.wav","3","main","","","true","mem_stim_33.wav","true","0","","0","miss"
"","","","","","html-keyboard-response","92","205265","0.0-10.0-1.31","https://mcdermottlab.mit.edu/mturk_stimuli/bjmedina/mem_exp_ind-nature_2025/sequences/isi_16/len120/seq008_len120_s15_isi-1p0_0p0_16p0.json","10.870000000000001","true","l9vvaeojece","","null","<span style=""font-size: 40px"">+</span>","null","","","","","","","","","",""
"","","","","","audio-button-response","93","208096","0.0-10.0-2.31","https://mcdermottlab.mit.edu/mturk_stimuli/bjmedina/mem_exp_ind-nature_2025/sequences/isi_16/len120/seq008_len120_s15_isi-1p0_0p0_16p0.json","10.870000000000001","true","l9vvaeojece","","2632","https://mcdermottlab.mit.edu/mturk_stimuli/bjmedina/mem_exp_ind-nature_2025/mem_stim_62.wav","0","main","","","false","mem_stim_62.wav","false","-1","","1","correct_rejection"
"","","","","","html-keyboard-response","94","208151","0.0-10.0-1.32","https://mcdermottlab.mit.edu/mturk_stimuli/bjmedina/mem_exp_ind-nature_2025/sequences/isi_16/len120/seq008_len120_s15_isi-1p0_0p0_16p0.json","10.870000000000001","true","l9vvaeojece","","null","<span style=""font-size: 40px"">+</span>","null","","","","","","","","","",""
"","","","","","audio-button-response","95","210562","0.0-10.0-2.32","https://mcdermottlab.mit.edu/mturk_stimuli/bjmedina/mem_exp_ind-nature_2025/sequences/isi_16/len120/seq008_len120_s15_isi-1p0_0p0_16p0.json","10.870000000000001","true","l9vvaeojece","","2411","https://mcdermottlab.mit.edu/mturk_stimuli/bjmedina/mem_exp_ind-nature_2025/mem_stim_55.wav","3","main","","","true","mem_stim_55.wav","false","16","","0","miss"
"","","","","","html-keyboard-response","96","210627","0.0-10.0-1.33","https://mcdermottlab.mit.edu/mturk_stimuli/bjmedina/mem_exp_ind-nature_2025/sequences/isi_16/len120/seq008_len120_s15_isi-1p0_0p0_16p0.json","10.870000000000001","true","l9vvaeojece","","null","<span style=""font-size: 40px"">+</span>","null","","","","","","","","","",""
"","","","","","audio-button-response","97","213118","0.0-10.0-2.33","https://mcdermottlab.mit.edu/mturk_stimuli/bjmedina/mem_exp_ind-nature_2025/sequences/isi_16/len120/seq008_len120_s15_isi-1p0_0p0_16p0.json","10.870000000000001","true","l9vvaeojece","","2491","https://mcdermottlab.mit.edu/mturk_stimuli/bjmedina/mem_exp_ind-nature_2025/mem_stim_67.wav","2","main","","","true","mem_stim_67.wav","false","16","","0","miss"
"","","","","","html-keyboard-response","98","213183","0.0-10.0-1.34","https://mcdermottlab.mit.edu/mturk_stimuli/bjmedina/mem_exp_ind-nature_2025/sequences/isi_16/len120/seq008_len120_s15_isi-1p0_0p0_16p0.json","10.870000000000001","true","l9vvaeojece","","null","<span style=""font-size: 40px"">+</span>","null","","","","","","","","","",""
"","","","","","audio-button-response","99","215799","0.0-10.0-2.34","https://mcdermottlab.mit.edu/mturk_stimuli/bjmedina/mem_exp_ind-nature_2025/sequences/isi_16/len120/seq008_len120_s15_isi-1p0_0p0_16p0.json","10.870000000000001","true","l9vvaeojece","","2360","https://mcdermottlab.mit.edu/mturk_stimuli/bjmedina/mem_exp_ind-nature_2025/mem_stim_38.wav","0","main","","","false","mem_stim_38.wav","false","-1","","1","correct_rejection"
"","","","","","html-keyboard-response","100","215865","0.0-10.0-1.35","https://mcdermottlab.mit.edu/mturk_stimuli/bjmedina/mem_exp_ind-nature_2025/sequences/isi_16/len120/seq008_len120_s15_isi-1p0_0p0_16p0.json","10.870000000000001","true","l9vvaeojece","","null","<span style=""font-size: 40px"">+</span>","null","","","","","","","","","",""
"","","","","","audio-button-response","101","218274","0.0-10.0-2.35","https://mcdermottlab.mit.edu/mturk_stimuli/bjmedina/mem_exp_ind-nature_2025/sequences/isi_16/len120/seq008_len120_s15_isi-1p0_0p0_16p0.json","10.870000000000001","true","l9vvaeojece","","2411","https://mcdermottlab.mit.edu/mturk_stimuli/bjmedina/mem_exp_ind-nature_2025/mem_stim_38.wav","3","main","","","true","mem_stim_38.wav","true","0","","0","miss"
"","","","","","html-keyboard-response","102","218339","0.0-10.0-1.36","https://mcdermottlab.mit.edu/mturk_stimuli/bjmedina/mem_exp_ind-nature_2025/sequences/isi_16/len120/seq008_len120_s15_isi-1p0_0p0_16p0.json","10.870000000000001","true","l9vvaeojece","","null","<span style=""font-size: 40px"">+</span>","null","","","","","","","","","",""
"","","","","","audio-button-response","103","221324","0.0-10.0-2.36","https://mcdermottlab.mit.edu/mturk_stimuli/bjmedina/mem_exp_ind-nature_2025/sequences/isi_16/len120/seq008_len120_s15_isi-1p0_0p0_16p0.json","10.870000000000001","true","l9vvaeojece","","2771","https://mcdermottlab.mit.edu/mturk_stimuli/bjmedina/mem_exp_ind-nature_2025/mem_stim_20.wav","1","main","","","false","mem_stim_20.wav","false","-1","","0","false_alarm"
"","","","","","html-keyboard-response","104","221381","0.0-10.0-1.37","https://mcdermottlab.mit.edu/mturk_stimuli/bjmedina/mem_exp_ind-nature_2025/sequences/isi_16/len120/seq008_len120_s15_isi-1p0_0p0_16p0.json","10.870000000000001","true","l9vvaeojece","","null","<span style=""font-size: 40px"">+</span>","null","","","","","","","","","",""
"","","","","","audio-button-response","105","223441","0.0-10.0-2.37","https://mcdermottlab.mit.edu/mturk_stimuli/bjmedina/mem_exp_ind-nature_2025/sequences/isi_16/len120/seq008_len120_s15_isi-1p0_0p0_16p0.json","10.870000000000001","true","l9vvaeojece","","2061","https://mcdermottlab.mit.edu/mturk_stimuli/bjmedina/mem_exp_ind-nature_2025/mem_stim_53.wav","3","main","","","true","mem_stim_53.wav","false","16","","0","miss"
"","","","","","html-keyboard-response","106","223505","0.0-10.0-1.38","https://mcdermottlab.mit.edu/mturk_stimuli/bjmedina/mem_exp_ind-nature_2025/sequences/isi_16/len120/seq008_len120_s15_isi-1p0_0p0_16p0.json","10.870000000000001","true","l9vvaeojece","","null","<span style=""font-size: 40px"">+</span>","null","","","","","","","","","",""
"","","","","","audio-button-response","107","226052","0.0-10.0-2.38","https://mcdermottlab.mit.edu/mturk_stimuli/bjmedina/mem_exp_ind-nature_2025/sequences/isi_16/len120/seq008_len120_s15_isi-1p0_0p0_16p0.json","10.870000000000001","true","l9vvaeojece","","2552","https://mcdermottlab.mit.edu/mturk_stimuli/bjmedina/mem_exp_ind-nature_2025/mem_stim_61.wav","3","main","","","true","mem_stim_61.wav","false","16","","0","miss"
"","","","","","html-keyboard-response","108","226118","0.0-10.0-1.39","https://mcdermottlab.mit.edu/mturk_stimuli/bjmedina/mem_exp_ind-nature_2025/sequences/isi_16/len120/seq008_len120_s15_isi-1p0_0p0_16p0.json","10.870000000000001","true","l9vvaeojece","","null","<span style=""font-size: 40px"">+</span>","null","","","","","","","","","",""
"","","","","","audio-button-response","109","228713","0.0-10.0-2.39","https://mcdermottlab.mit.edu/mturk_stimuli/bjmedina/mem_exp_ind-nature_2025/sequences/isi_16/len120/seq008_len120_s15_isi-1p0_0p0_16p0.json","10.870000000000001","true","l9vvaeojece","","2400","https://mcdermottlab.mit.edu/mturk_stimuli/bjmedina/mem_exp_ind-nature_2025/mem_stim_32.wav","0","main","","","false","mem_stim_32.wav","false","-1","","1","correct_rejection"
"","","","","","html-keyboard-response","110","228779","0.0-10.0-1.40","https://mcdermottlab.mit.edu/mturk_stimuli/bjmedina/mem_exp_ind-nature_2025/sequences/isi_16/len120/seq008_len120_s15_isi-1p0_0p0_16p0.json","10.870000000000001","true","l9vvaeojece","","null","<span style=""font-size: 40px"">+</span>","null","","","","","","","","","",""
"","","","","","audio-button-response","111","231166","0.0-10.0-2.40","https://mcdermottlab.mit.edu/mturk_stimuli/bjmedina/mem_exp_ind-nature_2025/sequences/isi_16/len120/seq008_len120_s15_isi-1p0_0p0_16p0.json","10.870000000000001","true","l9vvaeojece","","2381","https://mcdermottlab.mit.edu/mturk_stimuli/bjmedina/mem_exp_ind-nature_2025/mem_stim_32.wav","3","main","","","true","mem_stim_32.wav","true","0","","0","miss"
"","","","","","html-keyboard-response","112","231233","0.0-10.0-1.41","https://mcdermottlab.mit.edu/mturk_stimuli/bjmedina/mem_exp_ind-nature_2025/sequences/isi_16/len120/seq008_len120_s15_isi-1p0_0p0_16p0.json","10.870000000000001","true","l9vvaeojece","","null","<span style=""font-size: 40px"">+</span>","null","","","","","","","","","",""
"","","","","","audio-button-response","113","234355","0.0-10.0-2.41","https://mcdermottlab.mit.edu/mturk_stimuli/bjmedina/mem_exp_ind-nature_2025/sequences/isi_16/len120/seq008_len120_s15_isi-1p0_0p0_16p0.json","10.870000000000001","true","l9vvaeojece","","2909","https://mcdermottlab.mit.edu/mturk_stimuli/bjmedina/mem_exp_ind-nature_2025/mem_stim_23.wav","1","main","","","false","mem_stim_23.wav","false","-1","","0","false_alarm"
"","","","","","html-keyboard-response","114","234412","0.0-10.0-1.42","https://mcdermottlab.mit.edu/mturk_stimuli/bjmedina/mem_exp_ind-nature_2025/sequences/isi_16/len120/seq008_len120_s15_isi-1p0_0p0_16p0.json","10.870000000000001","true","l9vvaeojece","","null","<span style=""font-size: 40px"">+</span>","null","","","","","","","","","",""
"","","","","","audio-button-response","115","236885","0.0-10.0-2.42","https://mcdermottlab.mit.edu/mturk_stimuli/bjmedina/mem_exp_ind-nature_2025/sequences/isi_16/len120/seq008_len120_s15_isi-1p0_0p0_16p0.json","10.870000000000001","true","l9vvaeojece","","2469","https://mcdermottlab.mit.edu/mturk_stimuli/bjmedina/mem_exp_ind-nature_2025/mem_stim_69.wav","2","main","","","true","mem_stim_69.wav","false","16","","0","miss"
"","","","","","html-keyboard-response","116","236951","0.0-10.0-1.43","https://mcdermottlab.mit.edu/mturk_stimuli/bjmedina/mem_exp_ind-nature_2025/sequences/isi_16/len120/seq008_len120_s15_isi-1p0_0p0_16p0.json","10.870000000000001","true","l9vvaeojece","","null","<span style=""font-size: 40px"">+</span>","null","","","","","","","","","",""
"","","","","","audio-button-response","117","239363","0.0-10.0-2.43","https://mcdermottlab.mit.edu/mturk_stimuli/bjmedina/mem_exp_ind-nature_2025/sequences/isi_16/len120/seq008_len120_s15_isi-1p0_0p0_16p0.json","10.870000000000001","true","l9vvaeojece","","2411","https://mcdermottlab.mit.edu/mturk_stimuli/bjmedina/mem_exp_ind-nature_2025/mem_stim_56.wav","3","main","","","true","mem_stim_56.wav","false","16","","0","miss"
"","","","","","html-keyboard-response","118","239420","0.0-10.0-1.44","https://mcdermottlab.mit.edu/mturk_stimuli/bjmedina/mem_exp_ind-nature_2025/sequences/isi_16/len120/seq008_len120_s15_isi-1p0_0p0_16p0.json","10.870000000000001","true","l9vvaeojece","","null","<span style=""font-size: 40px"">+</span>","null","","","","","","","","","",""
"","","","","","audio-button-response","119","242107","0.0-10.0-2.44","https://mcdermottlab.mit.edu/mturk_stimuli/bjmedina/mem_exp_ind-nature_2025/sequences/isi_16/len120/seq008_len120_s15_isi-1p0_0p0_16p0.json","10.870000000000001","true","l9vvaeojece","","2419","https://mcdermottlab.mit.edu/mturk_stimuli/bjmedina/mem_exp_ind-nature_2025/mem_stim_34.wav","0","main","","","false","mem_stim_34.wav","false","-1","","1","correct_rejection"
"","","","","","html-keyboard-response","120","242176","0.0-10.0-1.45","https://mcdermottlab.mit.edu/mturk_stimuli/bjmedina/mem_exp_ind-nature_2025/sequences/isi_16/len120/seq008_len120_s15_isi-1p0_0p0_16p0.json","10.870000000000001","true","l9vvaeojece","","null","<span style=""font-size: 40px"">+</span>","null","","","","","","","","","",""
"","","","","","audio-button-response","121","244616","0.0-10.0-2.45","https://mcdermottlab.mit.edu/mturk_stimuli/bjmedina/mem_exp_ind-nature_2025/sequences/isi_16/len120/seq008_len120_s15_isi-1p0_0p0_16p0.json","10.870000000000001","true","l9vvaeojece","","2440","https://mcdermottlab.mit.edu/mturk_stimuli/bjmedina/mem_exp_ind-nature_2025/mem_stim_34.wav","3","main","","","true","mem_stim_34.wav","true","0","","0","miss"
"","","","","","html-keyboard-response","122","244688","0.0-10.0-1.46","https://mcdermottlab.mit.edu/mturk_stimuli/bjmedina/mem_exp_ind-nature_2025/sequences/isi_16/len120/seq008_len120_s15_isi-1p0_0p0_16p0.json","10.870000000000001","true","l9vvaeojece","","null","<span style=""font-size: 40px"">+</span>","null","","","","","","","","","",""
"","","","","","audio-button-response","123","249503","0.0-10.0-2.46","https://mcdermottlab.mit.edu/mturk_stimuli/bjmedina/mem_exp_ind-nature_2025/sequences/isi_16/len120/seq008_len120_s15_isi-1p0_0p0_16p0.json","10.870000000000001","true","l9vvaeojece","","4528","https://mcdermottlab.mit.edu/mturk_stimuli/bjmedina/mem_exp_ind-nature_2025/mem_stim_40.wav","1","main","","","false","mem_stim_40.wav","false","-1","","0","false_alarm"
"","","","","","html-keyboard-response","124","249560","0.0-10.0-1.47","https://mcdermottlab.mit.edu/mturk_stimuli/bjmedina/mem_exp_ind-nature_2025/sequences/isi_16/len120/seq008_len120_s15_isi-1p0_0p0_16p0.json","10.870000000000001","true","l9vvaeojece","","null","<span style=""font-size: 40px"">+</span>","null","","","","","","","","","",""
"","","","","","audio-button-response","125","252373","0.0-10.0-2.47","https://mcdermottlab.mit.edu/mturk_stimuli/bjmedina/mem_exp_ind-nature_2025/sequences/isi_16/len120/seq008_len120_s15_isi-1p0_0p0_16p0.json","10.870000000000001","true","l9vvaeojece","","2552","https://mcdermottlab.mit.edu/mturk_stimuli/bjmedina/mem_exp_ind-nature_2025/mem_stim_60.wav","0","main","","","false","mem_stim_60.wav","false","-1","","1","correct_rejection"
"","","","","","html-keyboard-response","126","252441","0.0-10.0-1.48","https://mcdermottlab.mit.edu/mturk_stimuli/bjmedina/mem_exp_ind-nature_2025/sequences/isi_16/len120/seq008_len120_s15_isi-1p0_0p0_16p0.json","10.870000000000001","true","l9vvaeojece","","null","<span style=""font-size: 40px"">+</span>","null","","","","","","","","","",""
"","","","","","audio-button-response","127","254828","0.0-10.0-2.48","https://mcdermottlab.mit.edu/mturk_stimuli/bjmedina/mem_exp_ind-nature_2025/sequences/isi_16/len120/seq008_len120_s15_isi-1p0_0p0_16p0.json","10.870000000000001","true","l9vvaeojece","","2379","https://mcdermottlab.mit.edu/mturk_stimuli/bjmedina/mem_exp_ind-nature_2025/mem_stim_62.wav","2","main","","","true","mem_stim_62.wav","false","16","","0","miss"
"","","","","","html-keyboard-response","128","254886","0.0-10.0-1.49","https://mcdermottlab.mit.edu/mturk_stimuli/bjmedina/mem_exp_ind-nature_2025/sequences/isi_16/len120/seq008_len120_s15_isi-1p0_0p0_16p0.json","10.870000000000001","true","l9vvaeojece","","null","<span style=""font-size: 40px"">+</span>","null","","","","","","","","","",""
"","","","","","audio-button-response","129","257576","0.0-10.0-2.49","https://mcdermottlab.mit.edu/mturk_stimuli/bjmedina/mem_exp_ind-nature_2025/sequences/isi_16/len120/seq008_len120_s15_isi-1p0_0p0_16p0.json","10.870000000000001","true","l9vvaeojece","","2411","https://mcdermottlab.mit.edu/mturk_stimuli/bjmedina/mem_exp_ind-nature_2025/mem_stim_19.wav","1","main","","","false","mem_stim_19.wav","false","-1","","0","false_alarm"
"","","","","","html-keyboard-response","130","257632","0.0-10.0-1.50","https://mcdermottlab.mit.edu/mturk_stimuli/bjmedina/mem_exp_ind-nature_2025/sequences/isi_16/len120/seq008_len120_s15_isi-1p0_0p0_16p0.json","10.870000000000001","true","l9vvaeojece","","null","<span style=""font-size: 40px"">+</span>","null","","","","","","","","","",""
"","","","","","audio-button-response","131","260188","0.0-10.0-2.50","https://mcdermottlab.mit.edu/mturk_stimuli/bjmedina/mem_exp_ind-nature_2025/sequences/isi_16/len120/seq008_len120_s15_isi-1p0_0p0_16p0.json","10.870000000000001","true","l9vvaeojece","","2360","https://mcdermottlab.mit.edu/mturk_stimuli/bjmedina/mem_exp_ind-nature_2025/mem_stim_46.wav","0","main","","","false","mem_stim_46.wav","false","-1","","1","correct_rejection"
"","","","","","html-keyboard-response","132","260255","0.0-10.0-1.51","https://mcdermottlab.mit.edu/mturk_stimuli/bjmedina/mem_exp_ind-nature_2025/sequences/isi_16/len120/seq008_len120_s15_isi-1p0_0p0_16p0.json","10.870000000000001","true","l9vvaeojece","","null","<span style=""font-size: 40px"">+</span>","null","","","","","","","","","",""
"","","","","","audio-button-response","133","263193","0.0-10.0-2.51","https://mcdermottlab.mit.edu/mturk_stimuli/bjmedina/mem_exp_ind-nature_2025/sequences/isi_16/len120/seq008_len120_s15_isi-1p0_0p0_16p0.json","10.870000000000001","true","l9vvaeojece","","2680","https://mcdermottlab.mit.edu/mturk_stimuli/bjmedina/mem_exp_ind-nature_2025/mem_stim_21.wav","1","main","","","false","mem_stim_21.wav","false","-1","","0","false_alarm"
"","","","","","html-keyboard-response","134","263263","0.0-10.0-1.52","https://mcdermottlab.mit.edu/mturk_stimuli/bjmedina/mem_exp_ind-nature_2025/sequences/isi_16/len120/seq008_len120_s15_isi-1p0_0p0_16p0.json","10.870000000000001","true","l9vvaeojece","","null","<span style=""font-size: 40px"">+</span>","null","","","","","","","","","",""
"","","","","","audio-button-response","135","266818","0.0-10.0-2.52","https://mcdermottlab.mit.edu/mturk_stimuli/bjmedina/mem_exp_ind-nature_2025/sequences/isi_16/len120/seq008_len120_s15_isi-1p0_0p0_16p0.json","10.870000000000001","true","l9vvaeojece","","3309","https://mcdermottlab.mit.edu/mturk_stimuli/bjmedina/mem_exp_ind-nature_2025/mem_stim_36.wav","0","main","","","false","mem_stim_36.wav","false","-1","","1","correct_rejection"
"","","","","","html-keyboard-response","136","266887","0.0-10.0-1.53","https://mcdermottlab.mit.edu/mturk_stimuli/bjmedina/mem_exp_ind-nature_2025/sequences/isi_16/len120/seq008_len120_s15_isi-1p0_0p0_16p0.json","10.870000000000001","true","l9vvaeojece","","null","<span style=""font-size: 40px"">+</span>","null","","","","","","","","","",""
"","","","","","audio-button-response","137","269269","0.0-10.0-2.53","https://mcdermottlab.mit.edu/mturk_stimuli/bjmedina/mem_exp_ind-nature_2025/sequences/isi_16/len120/seq008_len120_s15_isi-1p0_0p0_16p0.json","10.870000000000001","true","l9vvaeojece","","2379","https://mcdermottlab.mit.edu/mturk_stimuli/bjmedina/mem_exp_ind-nature_2025/mem_stim_36.wav","3","main","","","true","mem_stim_36.wav","true","0","","0","miss"
"","","","","","html-keyboard-response","138","269337","0.0-10.0-1.54","https://mcdermottlab.mit.edu/mturk_stimuli/bjmedina/mem_exp_ind-nature_2025/sequences/isi_16/len120/seq008_len120_s15_isi-1p0_0p0_16p0.json","10.870000000000001","true","l9vvaeojece","","null","<span style=""font-size: 40px"">+</span>","null","","","","","","","","","",""
"","","","","","audio-button-response","139","273108","0.0-10.0-2.54","https://mcdermottlab.mit.edu/mturk_stimuli/bjmedina/mem_exp_ind-nature_2025/sequences/isi_16/len120/seq008_len120_s15_isi-1p0_0p0_16p0.json","10.870000000000001","true","l9vvaeojece","","3509","https://mcdermottlab.mit.edu/mturk_stimuli/bjmedina/mem_exp_ind-nature_2025/mem_stim_6.wav","1","main","","","false","mem_stim_6.wav","false","-1","","0","false_alarm"
"","","","","","html-keyboard-response","140","273178","0.0-10.0-1.55","https://mcdermottlab.mit.edu/mturk_stimuli/bjmedina/mem_exp_ind-nature_2025/sequences/isi_16/len120/seq008_len120_s15_isi-1p0_0p0_16p0.json","10.870000000000001","true","l9vvaeojece","","null","<span style=""font-size: 40px"">+</span>","null","","","","","","","","","",""
"","","","","","audio-button-response","141","276573","0.0-10.0-2.55","https://mcdermottlab.mit.edu/mturk_stimuli/bjmedina/mem_exp_ind-nature_2025/sequences/isi_16/len120/seq008_len120_s15_isi-1p0_0p0_16p0.json","10.870000000000001","true","l9vvaeojece","","3072","https://mcdermottlab.mit.edu/mturk_stimuli/bjmedina/mem_exp_ind-nature_2025/mem_stim_64.wav","1","main","","","false","mem_stim_64.wav","false","-1","","0","false_alarm"
"","","","","","html-keyboard-response","142","276630","0.0-10.0-1.56","https://mcdermottlab.mit.edu/mturk_stimuli/bjmedina/mem_exp_ind-nature_2025/sequences/isi_16/len120/seq008_len120_s15_isi-1p0_0p0_16p0.json","10.870000000000001","true","l9vvaeojece","","null","<span style=""font-size: 40px"">+</span>","null","","","","","","","","","",""
"","","","","","audio-button-response","143","280028","0.0-10.0-2.56","https://mcdermottlab.mit.edu/mturk_stimuli/bjmedina/mem_exp_ind-nature_2025/sequences/isi_16/len120/seq008_len120_s15_isi-1p0_0p0_16p0.json","10.870000000000001","true","l9vvaeojece","","2400","https://mcdermottlab.mit.edu/mturk_stimuli/bjmedina/mem_exp_ind-nature_2025/mem_stim_22.wav","0","main","","","false","mem_stim_22.wav","false","-1","","1","correct_rejection"
"","","","","","html-keyboard-response","144","280089","0.0-10.0-1.57","https://mcdermottlab.mit.edu/mturk_stimuli/bjmedina/mem_exp_ind-nature_2025/sequences/isi_16/len120/seq008_len120_s15_isi-1p0_0p0_16p0.json","10.870000000000001","true","l9vvaeojece","","null","<span style=""font-size: 40px"">+</span>","null","","","","","","","","","",""
"","","","","","audio-button-response","145","283624","0.0-10.0-2.57","https://mcdermottlab.mit.edu/mturk_stimuli/bjmedina/mem_exp_ind-nature_2025/sequences/isi_16/len120/seq008_len120_s15_isi-1p0_0p0_16p0.json","10.870000000000001","true","l9vvaeojece","","3339","https://mcdermottlab.mit.edu/mturk_stimuli/bjmedina/mem_exp_ind-nature_2025/mem_stim_30.wav","0","main","","","false","mem_stim_30.wav","false","-1","","1","correct_rejection"
"","","","","","html-keyboard-response","146","283691","0.0-10.0-1.58","https://mcdermottlab.mit.edu/mturk_stimuli/bjmedina/mem_exp_ind-nature_2025/sequences/isi_16/len120/seq008_len120_s15_isi-1p0_0p0_16p0.json","10.870000000000001","true","l9vvaeojece","","null","<span style=""font-size: 40px"">+</span>","null","","","","","","","","","",""
"","","","","","audio-button-response","147","286089","0.0-10.0-2.58","https://mcdermottlab.mit.edu/mturk_stimuli/bjmedina/mem_exp_ind-nature_2025/sequences/isi_16/len120/seq008_len120_s15_isi-1p0_0p0_16p0.json","10.870000000000001","true","l9vvaeojece","","2400","https://mcdermottlab.mit.edu/mturk_stimuli/bjmedina/mem_exp_ind-nature_2025/mem_stim_30.wav","3","main","","","true","mem_stim_30.wav","true","0","","0","miss"
"","","","","","html-keyboard-response","148","286159","0.0-10.0-1.59","https://mcdermottlab.mit.edu/mturk_stimuli/bjmedina/mem_exp_ind-nature_2025/sequences/isi_16/len120/seq008_len120_s15_isi-1p0_0p0_16p0.json","10.870000000000001","true","l9vvaeojece","","null","<span style=""font-size: 40px"">+</span>","null","","","","","","","","","",""
"","","","","","audio-button-response","149","288934","0.0-10.0-2.59","https://mcdermottlab.mit.edu/mturk_stimuli/bjmedina/mem_exp_ind-nature_2025/sequences/isi_16/len120/seq008_len120_s15_isi-1p0_0p0_16p0.json","10.870000000000001","true","l9vvaeojece","","2491","https://mcdermottlab.mit.edu/mturk_stimuli/bjmedina/mem_exp_ind-nature_2025/mem_stim_7.wav","0","main","","","false","mem_stim_7.wav","false","-1","","1","correct_rejection"
"","","","","","html-keyboard-response","150","289004","0.0-10.0-1.60","https://mcdermottlab.mit.edu/mturk_stimuli/bjmedina/mem_exp_ind-nature_2025/sequences/isi_16/len120/seq008_len120_s15_isi-1p0_0p0_16p0.json","10.870000000000001","true","l9vvaeojece","","null","<span style=""font-size: 40px"">+</span>","null","","","","","","","","","",""
"","","","","","audio-button-response","151","291634","0.0-10.0-2.60","https://mcdermottlab.mit.edu/mturk_stimuli/bjmedina/mem_exp_ind-nature_2025/sequences/isi_16/len120/seq008_len120_s15_isi-1p0_0p0_16p0.json","10.870000000000001","true","l9vvaeojece","","2389","https://mcdermottlab.mit.edu/mturk_stimuli/bjmedina/mem_exp_ind-nature_2025/mem_stim_68.wav","0","main","","","false","mem_stim_68.wav","false","-1","","1","correct_rejection"
"","","","","","html-keyboard-response","152","291703","0.0-10.0-1.61","https://mcdermottlab.mit.edu/mturk_stimuli/bjmedina/mem_exp_ind-nature_2025/sequences/isi_16/len120/seq008_len120_s15_isi-1p0_0p0_16p0.json","10.870000000000001","true","l9vvaeojece","","null","<span style=""font-size: 40px"">+</span>","null","","","","","","","","","",""
"","","","","","audio-button-response","153","294272","0.0-10.0-2.61","https://mcdermottlab.mit.edu/mturk_stimuli/bjmedina/mem_exp_ind-nature_2025/sequences/isi_16/len120/seq008_len120_s15_isi-1p0_0p0_16p0.json","10.870000000000001","true","l9vvaeojece","","2371","https://mcdermottlab.mit.edu/mturk_stimuli/bjmedina/mem_exp_ind-nature_2025/mem_stim_74.wav","1","main","","","false","mem_stim_74.wav","false","-1","","0","false_alarm"
"","","","","","html-keyboard-response","154","294342","0.0-10.0-1.62","https://mcdermottlab.mit.edu/mturk_stimuli/bjmedina/mem_exp_ind-nature_2025/sequences/isi_16/len120/seq008_len120_s15_isi-1p0_0p0_16p0.json","10.870000000000001","true","l9vvaeojece","","null","<span style=""font-size: 40px"">+</span>","null","","","","","","","","","",""
"","","","","","audio-button-response","155","297019","0.0-10.0-2.62","https://mcdermottlab.mit.edu/mturk_stimuli/bjmedina/mem_exp_ind-nature_2025/sequences/isi_16/len120/seq008_len120_s15_isi-1p0_0p0_16p0.json","10.870000000000001","true","l9vvaeojece","","2429","https://mcdermottlab.mit.edu/mturk_stimuli/bjmedina/mem_exp_ind-nature_2025/mem_stim_45.wav","0","main","","","false","mem_stim_45.wav","false","-1","","1","correct_rejection"
"","","","","","html-keyboard-response","156","297089","0.0-10.0-1.63","https://mcdermottlab.mit.edu/mturk_stimuli/bjmedina/mem_exp_ind-nature_2025/sequences/isi_16/len120/seq008_len120_s15_isi-1p0_0p0_16p0.json","10.870000000000001","true","l9vvaeojece","","null","<span style=""font-size: 40px"">+</span>","null","","","","","","","","","",""
"","","","","","audio-button-response","157","299575","0.0-10.0-2.63","https://mcdermottlab.mit.edu/mturk_stimuli/bjmedina/mem_exp_ind-nature_2025/sequences/isi_16/len120/seq008_len120_s15_isi-1p0_0p0_16p0.json","10.870000000000001","true","l9vvaeojece","","2480","https://mcdermottlab.mit.edu/mturk_stimuli/bjmedina/mem_exp_ind-nature_2025/mem_stim_40.wav","3","main","","","true","mem_stim_40.wav","false","16","","0","miss"
"","","","","","html-keyboard-response","158","299645","0.0-10.0-1.64","https://mcdermottlab.mit.edu/mturk_stimuli/bjmedina/mem_exp_ind-nature_2025/sequences/isi_16/len120/seq008_len120_s15_isi-1p0_0p0_16p0.json","10.870000000000001","true","l9vvaeojece","","null","<span style=""font-size: 40px"">+</span>","null","","","","","","","","","",""
"","","","","","audio-button-response","159","302469","0.0-10.0-2.64","https://mcdermottlab.mit.edu/mturk_stimuli/bjmedina/mem_exp_ind-nature_2025/sequences/isi_16/len120/seq008_len120_s15_isi-1p0_0p0_16p0.json","10.870000000000001","true","l9vvaeojece","","2829","https://mcdermottlab.mit.edu/mturk_stimuli/bjmedina/mem_exp_ind-nature_2025/mem_stim_60.wav","3","main","","","true","mem_stim_60.wav","false","16","","0","miss"
"","","","","","html-keyboard-response","160","302538","0.0-10.0-1.65","https://mcdermottlab.mit.edu/mturk_stimuli/bjmedina/mem_exp_ind-nature_2025/sequences/isi_16/len120/seq008_len120_s15_isi-1p0_0p0_16p0.json","10.870000000000001","true","l9vvaeojece","","null","<span style=""font-size: 40px"">+</span>","null","","","","","","","","","",""
"","","","","","audio-button-response","161","305268","0.0-10.0-2.65","https://mcdermottlab.mit.edu/mturk_stimuli/bjmedina/mem_exp_ind-nature_2025/sequences/isi_16/len120/seq008_len120_s15_isi-1p0_0p0_16p0.json","10.870000000000001","true","l9vvaeojece","","2480","https://mcdermottlab.mit.edu/mturk_stimuli/bjmedina/mem_exp_ind-nature_2025/mem_stim_43.wav","0","main","","","false","mem_stim_43.wav","false","-1","","1","correct_rejection"
"","","","","","html-keyboard-response","162","305338","0.0-10.0-1.66","https://mcdermottlab.mit.edu/mturk_stimuli/bjmedina/mem_exp_ind-nature_2025/sequences/isi_16/len120/seq008_len120_s15_isi-1p0_0p0_16p0.json","10.870000000000001","true","l9vvaeojece","","null","<span style=""font-size: 40px"">+</span>","null","","","","","","","","","",""
"","","","","","audio-button-response","163","309159","0.0-10.0-2.66","https://mcdermottlab.mit.edu/mturk_stimuli/bjmedina/mem_exp_ind-nature_2025/sequences/isi_16/len120/seq008_len120_s15_isi-1p0_0p0_16p0.json","10.870000000000001","true","l9vvaeojece","","3600","https://mcdermottlab.mit.edu/mturk_stimuli/bjmedina/mem_exp_ind-nature_2025/mem_stim_8.wav","0","main","","","false","mem_stim_8.wav","false","-1","","1","correct_rejection"
"","","","","","html-keyboard-response","164","309217","0.0-10.0-1.67","https://mcdermottlab.mit.edu/mturk_stimuli/bjmedina/mem_exp_ind-nature_2025/sequences/isi_16/len120/seq008_len120_s15_isi-1p0_0p0_16p0.json","10.870000000000001","true","l9vvaeojece","","null","<span style=""font-size: 40px"">+</span>","null","","","","","","","","","",""
"","","","","","audio-button-response","165","311563","0.0-10.0-2.67","https://mcdermottlab.mit.edu/mturk_stimuli/bjmedina/mem_exp_ind-nature_2025/sequences/isi_16/len120/seq008_len120_s15_isi-1p0_0p0_16p0.json","10.870000000000001","true","l9vvaeojece","","2341","https://mcdermottlab.mit.edu/mturk_stimuli/bjmedina/mem_exp_ind-nature_2025/mem_stim_46.wav","3","main","","","true","mem_stim_46.wav","false","16","","0","miss"
"","","","","","html-keyboard-response","166","311633","0.0-10.0-1.68","https://mcdermottlab.mit.edu/mturk_stimuli/bjmedina/mem_exp_ind-nature_2025/sequences/isi_16/len120/seq008_len120_s15_isi-1p0_0p0_16p0.json","10.870000000000001","true","l9vvaeojece","","null","<span style=""font-size: 40px"">+</span>","null","","","","","","","","","",""
"","","","","","audio-button-response","167","314341","0.0-10.0-2.68","https://mcdermottlab.mit.edu/mturk_stimuli/bjmedina/mem_exp_ind-nature_2025/sequences/isi_16/len120/seq008_len120_s15_isi-1p0_0p0_16p0.json","10.870000000000001","true","l9vvaeojece","","2408","https://mcdermottlab.mit.edu/mturk_stimuli/bjmedina/mem_exp_ind-nature_2025/mem_stim_57.wav","1","main","","","false","mem_stim_57.wav","false","-1","","0","false_alarm"
"","","","","","html-keyboard-response","168","314402","0.0-10.0-1.69","https://mcdermottlab.mit.edu/mturk_stimuli/bjmedina/mem_exp_ind-nature_2025/sequences/isi_16/len120/seq008_len120_s15_isi-1p0_0p0_16p0.json","10.870000000000001","true","l9vvaeojece","","null","<span style=""font-size: 40px"">+</span>","null","","","","","","","","","",""
"","","","","","audio-button-response","169","316994","0.0-10.0-2.69","https://mcdermottlab.mit.edu/mturk_stimuli/bjmedina/mem_exp_ind-nature_2025/sequences/isi_16/len120/seq008_len120_s15_isi-1p0_0p0_16p0.json","10.870000000000001","true","l9vvaeojece","","2429","https://mcdermottlab.mit.edu/mturk_stimuli/bjmedina/mem_exp_ind-nature_2025/mem_stim_24.wav","2","main","","","false","mem_stim_24.wav","false","-1","","1","correct_rejection"
"","","","","","html-keyboard-response","170","317053","0.0-10.0-1.70","https://mcdermottlab.mit.edu/mturk_stimuli/bjmedina/mem_exp_ind-nature_2025/sequences/isi_16/len120/seq008_len120_s15_isi-1p0_0p0_16p0.json","10.870000000000001","true","l9vvaeojece","","null","<span style=""font-size: 40px"">+</span>","null","","","","","","","","","",""
"","","","","","audio-button-response","171","319640","0.0-10.0-2.70","https://mcdermottlab.mit.edu/mturk_stimuli/bjmedina/mem_exp_ind-nature_2025/sequences/isi_16/len120/seq008_len120_s15_isi-1p0_0p0_16p0.json","10.870000000000001","true","l9vvaeojece","","2389","https://mcdermottlab.mit.edu/mturk_stimuli/bjmedina/mem_exp_ind-nature_2025/mem_stim_78.wav","3","main","","","false","mem_stim_78.wav","false","-1","","1","correct_rejection"
"","","","","","html-keyboard-response","172","319713","0.0-10.0-1.71","https://mcdermottlab.mit.edu/mturk_stimuli/bjmedina/mem_exp_ind-nature_2025/sequences/isi_16/len120/seq008_len120_s15_isi-1p0_0p0_16p0.json","10.870000000000001","true","l9vvaeojece","","null","<span style=""font-size: 40px"">+</span>","null","","","","","","","","","",""
"","","","","","audio-button-response","173","323290","0.0-10.0-2.71","https://mcdermottlab.mit.edu/mturk_stimuli/bjmedina/mem_exp_ind-nature_2025/sequences/isi_16/len120/seq008_len120_s15_isi-1p0_0p0_16p0.json","10.870000000000001","true","l9vvaeojece","","3341","https://mcdermottlab.mit.edu/mturk_stimuli/bjmedina/mem_exp_ind-nature_2025/mem_stim_2.wav","1","main","","","false","mem_stim_2.wav","false","-1","","0","false_alarm"
"","","","","","html-keyboard-response","174","323362","0.0-10.0-1.72","https://mcdermottlab.mit.edu/mturk_stimuli/bjmedina/mem_exp_ind-nature_2025/sequences/isi_16/len120/seq008_len120_s15_isi-1p0_0p0_16p0.json","10.870000000000001","true","l9vvaeojece","","null","<span style=""font-size: 40px"">+</span>","null","","","","","","","","","",""
"","","","","","audio-button-response","175","325790","0.0-10.0-2.72","https://mcdermottlab.mit.edu/mturk_stimuli/bjmedina/mem_exp_ind-nature_2025/sequences/isi_16/len120/seq008_len120_s15_isi-1p0_0p0_16p0.json","10.870000000000001","true","l9vvaeojece","","2429","https://mcdermottlab.mit.edu/mturk_stimuli/bjmedina/mem_exp_ind-nature_2025/mem_stim_64.wav","3","main","","","true","mem_stim_64.wav","false","16","","0","miss"
"","","","","","html-keyboard-response","176","325851","0.0-10.0-1.73","https://mcdermottlab.mit.edu/mturk_stimuli/bjmedina/mem_exp_ind-nature_2025/sequences/isi_16/len120/seq008_len120_s15_isi-1p0_0p0_16p0.json","10.870000000000001","true","l9vvaeojece","","null","<span style=""font-size: 40px"">+</span>","null","","","","","","","","","",""
"","","","","","audio-button-response","177","328957","0.0-10.0-2.73","https://mcdermottlab.mit.edu/mturk_stimuli/bjmedina/mem_exp_ind-nature_2025/sequences/isi_16/len120/seq008_len120_s15_isi-1p0_0p0_16p0.json","10.870000000000001","true","l9vvaeojece","","2829","https://mcdermottlab.mit.edu/mturk_stimuli/bjmedina/mem_exp_ind-nature_2025/mem_stim_63.wav","0","main","","","false","mem_stim_63.wav","false","-1","","1","correct_rejection"
"","","","","","html-keyboard-response","178","329016","0.0-10.0-1.74","https://mcdermottlab.mit.edu/mturk_stimuli/bjmedina/mem_exp_ind-nature_2025/sequences/isi_16/len120/seq008_len120_s15_isi-1p0_0p0_16p0.json","10.870000000000001","true","l9vvaeojece","","null","<span style=""font-size: 40px"">+</span>","null","","","","","","","","","",""
"","","","","","audio-button-response","179","332625","0.0-10.0-2.74","https://mcdermottlab.mit.edu/mturk_stimuli/bjmedina/mem_exp_ind-nature_2025/sequences/isi_16/len120/seq008_len120_s15_isi-1p0_0p0_16p0.json","10.870000000000001","true","l9vvaeojece","","3299","https://mcdermottlab.mit.edu/mturk_stimuli/bjmedina/mem_exp_ind-nature_2025/mem_stim_41.wav","0","main","","","false","mem_stim_41.wav","false","-1","","1","correct_rejection"
"","","","","","html-keyboard-response","180","332692","0.0-10.0-1.75","https://mcdermottlab.mit.edu/mturk_stimuli/bjmedina/mem_exp_ind-nature_2025/sequences/isi_16/len120/seq008_len120_s15_isi-1p0_0p0_16p0.json","10.870000000000001","true","l9vvaeojece","","null","<span style=""font-size: 40px"">+</span>","null","","","","","","","","","",""
"","","","","","audio-button-response","181","335671","0.0-10.0-2.75","https://mcdermottlab.mit.edu/mturk_stimuli/bjmedina/mem_exp_ind-nature_2025/sequences/isi_16/len120/seq008_len120_s15_isi-1p0_0p0_16p0.json","10.870000000000001","true","l9vvaeojece","","2709","https://mcdermottlab.mit.edu/mturk_stimuli/bjmedina/mem_exp_ind-nature_2025/mem_stim_79.wav","1","main","","","false","mem_stim_79.wav","false","-1","","0","false_alarm"
"","","","","","html-keyboard-response","182","335746","0.0-10.0-1.76","https://mcdermottlab.mit.edu/mturk_stimuli/bjmedina/mem_exp_ind-nature_2025/sequences/isi_16/len120/seq008_len120_s15_isi-1p0_0p0_16p0.json","10.870000000000001","true","l9vvaeojece","","null","<span style=""font-size: 40px"">+</span>","null","","","","","","","","","",""
"","","","","","audio-button-response","183","338587","0.0-10.0-2.76","https://mcdermottlab.mit.edu/mturk_stimuli/bjmedina/mem_exp_ind-nature_2025/sequences/isi_16/len120/seq008_len120_s15_isi-1p0_0p0_16p0.json","10.870000000000001","true","l9vvaeojece","","2579","https://mcdermottlab.mit.edu/mturk_stimuli/bjmedina/mem_exp_ind-nature_2025/mem_stim_16.wav","1","main","","","false","mem_stim_16.wav","false","-1","","0","false_alarm"
"","","","","","html-keyboard-response","184","338661","0.0-10.0-1.77","https://mcdermottlab.mit.edu/mturk_stimuli/bjmedina/mem_exp_ind-nature_2025/sequences/isi_16/len120/seq008_len120_s15_isi-1p0_0p0_16p0.json","10.870000000000001","true","l9vvaeojece","","null","<span style=""font-size: 40px"">+</span>","null","","","","","","","","","",""
"","","","","","audio-button-response","185","341056","0.0-10.0-2.77","https://mcdermottlab.mit.edu/mturk_stimuli/bjmedina/mem_exp_ind-nature_2025/sequences/isi_16/len120/seq008_len120_s15_isi-1p0_0p0_16p0.json","10.870000000000001","true","l9vvaeojece","","2392","https://mcdermottlab.mit.edu/mturk_stimuli/bjmedina/mem_exp_ind-nature_2025/mem_stim_68.wav","2","main","","","true","mem_stim_68.wav","false","16","","0","miss"
"","","","","","html-keyboard-response","186","341114","0.0-10.0-1.78","https://mcdermottlab.mit.edu/mturk_stimuli/bjmedina/mem_exp_ind-nature_2025/sequences/isi_16/len120/seq008_len120_s15_isi-1p0_0p0_16p0.json","10.870000000000001","true","l9vvaeojece","","null","<span style=""font-size: 40px"">+</span>","null","","","","","","","","","",""
"","","","","","audio-button-response","187","343944","0.0-10.0-2.78","https://mcdermottlab.mit.edu/mturk_stimuli/bjmedina/mem_exp_ind-nature_2025/sequences/isi_16/len120/seq008_len120_s15_isi-1p0_0p0_16p0.json","10.870000000000001","true","l9vvaeojece","","2528","https://mcdermottlab.mit.edu/mturk_stimuli/bjmedina/mem_exp_ind-nature_2025/mem_stim_25.wav","2","main","","","false","mem_stim_25.wav","false","-1","","1","correct_rejection"
"","","","","","html-keyboard-response","188","344012","0.0-10.0-1.79","https://mcdermottlab.mit.edu/mturk_stimuli/bjmedina/mem_exp_ind-nature_2025/sequences/isi_16/len120/seq008_len120_s15_isi-1p0_0p0_16p0.json","10.870000000000001","true","l9vvaeojece","","null","<span style=""font-size: 40px"">+</span>","null","","","","","","","","","",""
"","","","","","audio-button-response","189","347060","0.0-10.0-2.79","https://mcdermottlab.mit.edu/mturk_stimuli/bjmedina/mem_exp_ind-nature_2025/sequences/isi_16/len120/seq008_len120_s15_isi-1p0_0p0_16p0.json","10.870000000000001","true","l9vvaeojece","","3048","https://mcdermottlab.mit.edu/mturk_stimuli/bjmedina/mem_exp_ind-nature_2025/mem_stim_45.wav","2","main","","","true","mem_stim_45.wav","false","16","","0","miss"
"","","","","","html-keyboard-response","190","347134","0.0-10.0-1.80","https://mcdermottlab.mit.edu/mturk_stimuli/bjmedina/mem_exp_ind-nature_2025/sequences/isi_16/len120/seq008_len120_s15_isi-1p0_0p0_16p0.json","10.870000000000001","true","l9vvaeojece","","null","<span style=""font-size: 40px"">+</span>","null","","","","","","","","","",""
"","","","","","audio-button-response","191","349723","0.0-10.0-2.80","https://mcdermottlab.mit.edu/mturk_stimuli/bjmedina/mem_exp_ind-nature_2025/sequences/isi_16/len120/seq008_len120_s15_isi-1p0_0p0_16p0.json","10.870000000000001","true","l9vvaeojece","","2381","https://mcdermottlab.mit.edu/mturk_stimuli/bjmedina/mem_exp_ind-nature_2025/mem_stim_52.wav","0","main","","","false","mem_stim_52.wav","false","-1","","1","correct_rejection"
"","","","","","html-keyboard-response","192","349782","0.0-10.0-1.81","https://mcdermottlab.mit.edu/mturk_stimuli/bjmedina/mem_exp_ind-nature_2025/sequences/isi_16/len120/seq008_len120_s15_isi-1p0_0p0_16p0.json","10.870000000000001","true","l9vvaeojece","","null","<span style=""font-size: 40px"">+</span>","null","","","","","","","","","",""
"","","","","","audio-button-response","193","352966","0.0-10.0-2.81","https://mcdermottlab.mit.edu/mturk_stimuli/bjmedina/mem_exp_ind-nature_2025/sequences/isi_16/len120/seq008_len120_s15_isi-1p0_0p0_16p0.json","10.870000000000001","true","l9vvaeojece","","2371","https://mcdermottlab.mit.edu/mturk_stimuli/bjmedina/mem_exp_ind-nature_2025/mem_stim_51.wav","0","main","","","false","mem_stim_51.wav","false","-1","","1","correct_rejection"
"","","","","","html-keyboard-response","194","353041","0.0-10.0-1.82","https://mcdermottlab.mit.edu/mturk_stimuli/bjmedina/mem_exp_ind-nature_2025/sequences/isi_16/len120/seq008_len120_s15_isi-1p0_0p0_16p0.json","10.870000000000001","true","l9vvaeojece","","null","<span style=""font-size: 40px"">+</span>","null","","","","","","","","","",""
"","","","","","audio-button-response","195","355875","0.0-10.0-2.82","https://mcdermottlab.mit.edu/mturk_stimuli/bjmedina/mem_exp_ind-nature_2025/sequences/isi_16/len120/seq008_len120_s15_isi-1p0_0p0_16p0.json","10.870000000000001","true","l9vvaeojece","","2829","https://mcdermottlab.mit.edu/mturk_stimuli/bjmedina/mem_exp_ind-nature_2025/mem_stim_43.wav","1","main","","","true","mem_stim_43.wav","false","16","","1","hit"
"","","","","","html-keyboard-response","196","355933","0.0-10.0-1.83","https://mcdermottlab.mit.edu/mturk_stimuli/bjmedina/mem_exp_ind-nature_2025/sequences/isi_16/len120/seq008_len120_s15_isi-1p0_0p0_16p0.json","10.870000000000001","true","l9vvaeojece","","null","<span style=""font-size: 40px"">+</span>","null","","","","","","","","","",""
"","","","","","audio-button-response","197","359440","0.0-10.0-2.83","https://mcdermottlab.mit.edu/mturk_stimuli/bjmedina/mem_exp_ind-nature_2025/sequences/isi_16/len120/seq008_len120_s15_isi-1p0_0p0_16p0.json","10.870000000000001","true","l9vvaeojece","","2760","https://mcdermottlab.mit.edu/mturk_stimuli/bjmedina/mem_exp_ind-nature_2025/mem_stim_15.wav","1","main","","","false","mem_stim_15.wav","false","-1","","0","false_alarm"
"","","","","","html-keyboard-response","198","359499","0.0-10.0-1.84","https://mcdermottlab.mit.edu/mturk_stimuli/bjmedina/mem_exp_ind-nature_2025/sequences/isi_16/len120/seq008_len120_s15_isi-1p0_0p0_16p0.json","10.870000000000001","true","l9vvaeojece","","null","<span style=""font-size: 40px"">+</span>","null","","","","","","","","","",""
"","","","","","audio-button-response","199","362136","0.0-10.0-2.84","https://mcdermottlab.mit.edu/mturk_stimuli/bjmedina/mem_exp_ind-nature_2025/sequences/isi_16/len120/seq008_len120_s15_isi-1p0_0p0_16p0.json","10.870000000000001","true","l9vvaeojece","","2432","https://mcdermottlab.mit.edu/mturk_stimuli/bjmedina/mem_exp_ind-nature_2025/mem_stim_65.wav","0","main","","","false","mem_stim_65.wav","false","-1","","1","correct_rejection"
"","","","","","html-keyboard-response","200","362211","0.0-10.0-1.85","https://mcdermottlab.mit.edu/mturk_stimuli/bjmedina/mem_exp_ind-nature_2025/sequences/isi_16/len120/seq008_len120_s15_isi-1p0_0p0_16p0.json","10.870000000000001","true","l9vvaeojece","","null","<span style=""font-size: 40px"">+</span>","null","","","","","","","","","",""
"","","","","","audio-button-response","201","365590","0.0-10.0-2.85","https://mcdermottlab.mit.edu/mturk_stimuli/bjmedina/mem_exp_ind-nature_2025/sequences/isi_16/len120/seq008_len120_s15_isi-1p0_0p0_16p0.json","10.870000000000001","true","l9vvaeojece","","3379","https://mcdermottlab.mit.edu/mturk_stimuli/bjmedina/mem_exp_ind-nature_2025/mem_stim_57.wav","2","main","","","true","mem_stim_57.wav","false","16","","0","miss"
"","","","","","html-keyboard-response","202","365660","0.0-10.0-1.86","https://mcdermottlab.mit.edu/mturk_stimuli/bjmedina/mem_exp_ind-nature_2025/sequences/isi_16/len120/seq008_len120_s15_isi-1p0_0p0_16p0.json","10.870000000000001","true","l9vvaeojece","","null","<span style=""font-size: 40px"">+</span>","null","","","","","","","","","",""
"","","","","","audio-button-response","203","368399","0.0-10.0-2.86","https://mcdermottlab.mit.edu/mturk_stimuli/bjmedina/mem_exp_ind-nature_2025/sequences/isi_16/len120/seq008_len120_s15_isi-1p0_0p0_16p0.json","10.870000000000001","true","l9vvaeojece","","2371","https://mcdermottlab.mit.edu/mturk_stimuli/bjmedina/mem_exp_ind-nature_2025/mem_stim_58.wav","0","main","","","false","mem_stim_58.wav","false","-1","","1","correct_rejection"
"","","","","","html-keyboard-response","204","368473","0.0-10.0-1.87","https://mcdermottlab.mit.edu/mturk_stimuli/bjmedina/mem_exp_ind-nature_2025/sequences/isi_16/len120/seq008_len120_s15_isi-1p0_0p0_16p0.json","10.870000000000001","true","l9vvaeojece","","null","<span style=""font-size: 40px"">+</span>","null","","","","","","","","","",""
"","","","","","audio-button-response","205","371171","0.0-10.0-2.87","https://mcdermottlab.mit.edu/mturk_stimuli/bjmedina/mem_exp_ind-nature_2025/sequences/isi_16/len120/seq008_len120_s15_isi-1p0_0p0_16p0.json","10.870000000000001","true","l9vvaeojece","","2480","https://mcdermottlab.mit.edu/mturk_stimuli/bjmedina/mem_exp_ind-nature_2025/mem_stim_48.wav","0","main","","","false","mem_stim_48.wav","false","-1","","1","correct_rejection"
"","","","","","html-keyboard-response","206","371246","0.0-10.0-1.88","https://mcdermottlab.mit.edu/mturk_stimuli/bjmedina/mem_exp_ind-nature_2025/sequences/isi_16/len120/seq008_len120_s15_isi-1p0_0p0_16p0.json","10.870000000000001","true","l9vvaeojece","","null","<span style=""font-size: 40px"">+</span>","null","","","","","","","","","",""
"","","","","","audio-button-response","207","374795","0.0-10.0-2.88","https://mcdermottlab.mit.edu/mturk_stimuli/bjmedina/mem_exp_ind-nature_2025/sequences/isi_16/len120/seq008_len120_s15_isi-1p0_0p0_16p0.json","10.870000000000001","true","l9vvaeojece","","2389","https://mcdermottlab.mit.edu/mturk_stimuli/bjmedina/mem_exp_ind-nature_2025/mem_stim_44.wav","0","main","","","false","mem_stim_44.wav","false","-1","","1","correct_rejection"
"","","","","","html-keyboard-response","208","374854","0.0-10.0-1.89","https://mcdermottlab.mit.edu/mturk_stimuli/bjmedina/mem_exp_ind-nature_2025/sequences/isi_16/len120/seq008_len120_s15_isi-1p0_0p0_16p0.json","10.870000000000001","true","l9vvaeojece","","null","<span style=""font-size: 40px"">+</span>","null","","","","","","","","","",""
"","","","","","audio-button-response","209","377658","0.0-10.0-2.89","https://mcdermottlab.mit.edu/mturk_stimuli/bjmedina/mem_exp_ind-nature_2025/sequences/isi_16/len120/seq008_len120_s15_isi-1p0_0p0_16p0.json","10.870000000000001","true","l9vvaeojece","","2539","https://mcdermottlab.mit.edu/mturk_stimuli/bjmedina/mem_exp_ind-nature_2025/mem_stim_66.wav","0","main","","","false","mem_stim_66.wav","false","-1","","1","correct_rejection"
"","","","","","html-keyboard-response","210","377718","0.0-10.0-1.90","https://mcdermottlab.mit.edu/mturk_stimuli/bjmedina/mem_exp_ind-nature_2025/sequences/isi_16/len120/seq008_len120_s15_isi-1p0_0p0_16p0.json","10.870000000000001","true","l9vvaeojece","","null","<span style=""font-size: 40px"">+</span>","null","","","","","","","","","",""
"","","","","","audio-button-response","211","380155","0.0-10.0-2.90","https://mcdermottlab.mit.edu/mturk_stimuli/bjmedina/mem_exp_ind-nature_2025/sequences/isi_16/len120/seq008_len120_s15_isi-1p0_0p0_16p0.json","10.870000000000001","true","l9vvaeojece","","2429","https://mcdermottlab.mit.edu/mturk_stimuli/bjmedina/mem_exp_ind-nature_2025/mem_stim_63.wav","2","main","","","true","mem_stim_63.wav","false","16","","0","miss"
"","","","","","html-keyboard-response","212","380231","0.0-10.0-1.91","https://mcdermottlab.mit.edu/mturk_stimuli/bjmedina/mem_exp_ind-nature_2025/sequences/isi_16/len120/seq008_len120_s15_isi-1p0_0p0_16p0.json","10.870000000000001","true","l9vvaeojece","","null","<span style=""font-size: 40px"">+</span>","null","","","","","","","","","",""
"","","","","","audio-button-response","213","382619","0.0-10.0-2.91","https://mcdermottlab.mit.edu/mturk_stimuli/bjmedina/mem_exp_ind-nature_2025/sequences/isi_16/len120/seq008_len120_s15_isi-1p0_0p0_16p0.json","10.870000000000001","true","l9vvaeojece","","2389","https://mcdermottlab.mit.edu/mturk_stimuli/bjmedina/mem_exp_ind-nature_2025/mem_stim_41.wav","3","main","","","true","mem_stim_41.wav","false","16","","0","miss"
"","","","","","html-keyboard-response","214","382677","0.0-10.0-1.92","https://mcdermottlab.mit.edu/mturk_stimuli/bjmedina/mem_exp_ind-nature_2025/sequences/isi_16/len120/seq008_len120_s15_isi-1p0_0p0_16p0.json","10.870000000000001","true","l9vvaeojece","","null","<span style=""font-size: 40px"">+</span>","null","","","","","","","","","",""
"","","","","","audio-button-response","215","385368","0.0-10.0-2.92","https://mcdermottlab.mit.edu/mturk_stimuli/bjmedina/mem_exp_ind-nature_2025/sequences/isi_16/len120/seq008_len120_s15_isi-1p0_0p0_16p0.json","10.870000000000001","true","l9vvaeojece","","2421","https://mcdermottlab.mit.edu/mturk_stimuli/bjmedina/mem_exp_ind-nature_2025/mem_stim_49.wav","0","main","","","false","mem_stim_49.wav","false","-1","","1","correct_rejection"
"","","","","","html-keyboard-response","216","385426","0.0-10.0-1.93","https://mcdermottlab.mit.edu/mturk_stimuli/bjmedina/mem_exp_ind-nature_2025/sequences/isi_16/len120/seq008_len120_s15_isi-1p0_0p0_16p0.json","10.870000000000001","true","l9vvaeojece","","null","<span style=""font-size: 40px"">+</span>","null","","","","","","","","","",""
"","","","","","audio-button-response","217","388585","0.0-10.0-2.93","https://mcdermottlab.mit.edu/mturk_stimuli/bjmedina/mem_exp_ind-nature_2025/sequences/isi_16/len120/seq008_len120_s15_isi-1p0_0p0_16p0.json","10.870000000000001","true","l9vvaeojece","","2888","https://mcdermottlab.mit.edu/mturk_stimuli/bjmedina/mem_exp_ind-nature_2025/mem_stim_18.wav","0","main","","","false","mem_stim_18.wav","false","-1","","1","correct_rejection"
"","","","","","html-keyboard-response","218","388647","0.0-10.0-1.94","https://mcdermottlab.mit.edu/mturk_stimuli/bjmedina/mem_exp_ind-nature_2025/sequences/isi_16/len120/seq008_len120_s15_isi-1p0_0p0_16p0.json","10.870000000000001","true","l9vvaeojece","","null","<span style=""font-size: 40px"">+</span>","null","","","","","","","","","",""
"","","","","","audio-button-response","219","393587","0.0-10.0-2.94","https://mcdermottlab.mit.edu/mturk_stimuli/bjmedina/mem_exp_ind-nature_2025/sequences/isi_16/len120/seq008_len120_s15_isi-1p0_0p0_16p0.json","10.870000000000001","true","l9vvaeojece","","4669","https://mcdermottlab.mit.edu/mturk_stimuli/bjmedina/mem_exp_ind-nature_2025/mem_stim_42.wav","1","main","","","false","mem_stim_42.wav","false","-1","","0","false_alarm"
"","","","","","html-keyboard-response","220","393646","0.0-10.0-1.95","https://mcdermottlab.mit.edu/mturk_stimuli/bjmedina/mem_exp_ind-nature_2025/sequences/isi_16/len120/seq008_len120_s15_isi-1p0_0p0_16p0.json","10.870000000000001","true","l9vvaeojece","","null","<span style=""font-size: 40px"">+</span>","null","","","","","","","","","",""
"","","","","","audio-button-response","221","397005","0.0-10.0-2.95","https://mcdermottlab.mit.edu/mturk_stimuli/bjmedina/mem_exp_ind-nature_2025/sequences/isi_16/len120/seq008_len120_s15_isi-1p0_0p0_16p0.json","10.870000000000001","true","l9vvaeojece","","3080","https://mcdermottlab.mit.edu/mturk_stimuli/bjmedina/mem_exp_ind-nature_2025/mem_stim_70.wav","1","main","","","false","mem_stim_70.wav","false","-1","","0","false_alarm"
"","","","","","html-keyboard-response","222","397081","0.0-10.0-1.96","https://mcdermottlab.mit.edu/mturk_stimuli/bjmedina/mem_exp_ind-nature_2025/sequences/isi_16/len120/seq008_len120_s15_isi-1p0_0p0_16p0.json","10.870000000000001","true","l9vvaeojece","","null","<span style=""font-size: 40px"">+</span>","null","","","","","","","","","",""
"","","","","","audio-button-response","223","399638","0.0-10.0-2.96","https://mcdermottlab.mit.edu/mturk_stimuli/bjmedina/mem_exp_ind-nature_2025/sequences/isi_16/len120/seq008_len120_s15_isi-1p0_0p0_16p0.json","10.870000000000001","true","l9vvaeojece","","2400","https://mcdermottlab.mit.edu/mturk_stimuli/bjmedina/mem_exp_ind-nature_2025/mem_stim_1.wav","0","main","","","false","mem_stim_1.wav","false","-1","","1","correct_rejection"
"","","","","","html-keyboard-response","224","399713","0.0-10.0-1.97","https://mcdermottlab.mit.edu/mturk_stimuli/bjmedina/mem_exp_ind-nature_2025/sequences/isi_16/len120/seq008_len120_s15_isi-1p0_0p0_16p0.json","10.870000000000001","true","l9vvaeojece","","null","<span style=""font-size: 40px"">+</span>","null","","","","","","","","","",""
"","","","","","audio-button-response","225","402128","0.0-10.0-2.97","https://mcdermottlab.mit.edu/mturk_stimuli/bjmedina/mem_exp_ind-nature_2025/sequences/isi_16/len120/seq008_len120_s15_isi-1p0_0p0_16p0.json","10.870000000000001","true","l9vvaeojece","","2421","https://mcdermottlab.mit.edu/mturk_stimuli/bjmedina/mem_exp_ind-nature_2025/mem_stim_52.wav","3","main","","","true","mem_stim_52.wav","false","16","","0","miss"
"","","","","","html-keyboard-response","226","402207","0.0-10.0-1.98","https://mcdermottlab.mit.edu/mturk_stimuli/bjmedina/mem_exp_ind-nature_2025/sequences/isi_16/len120/seq008_len120_s15_isi-1p0_0p0_16p0.json","10.870000000000001","true","l9vvaeojece","","null","<span style=""font-size: 40px"">+</span>","null","","","","","","","","","",""
"","","","","","audio-button-response","227","404611","0.0-10.0-2.98","https://mcdermottlab.mit.edu/mturk_stimuli/bjmedina/mem_exp_ind-nature_2025/sequences/isi_16/len120/seq008_len120_s15_isi-1p0_0p0_16p0.json","10.870000000000001","true","l9vvaeojece","","2400","https://mcdermottlab.mit.edu/mturk_stimuli/bjmedina/mem_exp_ind-nature_2025/mem_stim_51.wav","3","main","","","true","mem_stim_51.wav","false","16","","0","miss"
"","","","","","html-keyboard-response","228","404684","0.0-10.0-1.99","https://mcdermottlab.mit.edu/mturk_stimuli/bjmedina/mem_exp_ind-nature_2025/sequences/isi_16/len120/seq008_len120_s15_isi-1p0_0p0_16p0.json","10.870000000000001","true","l9vvaeojece","","null","<span style=""font-size: 40px"">+</span>","null","","","","","","","","","",""
"","","","","","audio-button-response","229","410028","0.0-10.0-2.99","https://mcdermottlab.mit.edu/mturk_stimuli/bjmedina/mem_exp_ind-nature_2025/sequences/isi_16/len120/seq008_len120_s15_isi-1p0_0p0_16p0.json","10.870000000000001","true","l9vvaeojece","","5069","https://mcdermottlab.mit.edu/mturk_stimuli/bjmedina/mem_exp_ind-nature_2025/mem_stim_35.wav","2","main","","","false","mem_stim_35.wav","false","-1","","1","correct_rejection"
"","","","","","html-keyboard-response","230","410109","0.0-10.0-1.100","https://mcdermottlab.mit.edu/mturk_stimuli/bjmedina/mem_exp_ind-nature_2025/sequences/isi_16/len120/seq008_len120_s15_isi-1p0_0p0_16p0.json","10.870000000000001","true","l9vvaeojece","","null","<span style=""font-size: 40px"">+</span>","null","","","","","","","","","",""
"","","","","","audio-button-response","231","412556","0.0-10.0-2.100","https://mcdermottlab.mit.edu/mturk_stimuli/bjmedina/mem_exp_ind-nature_2025/sequences/isi_16/len120/seq008_len120_s15_isi-1p0_0p0_16p0.json","10.870000000000001","true","l9vvaeojece","","2440","https://mcdermottlab.mit.edu/mturk_stimuli/bjmedina/mem_exp_ind-nature_2025/mem_stim_35.wav","3","main","","","true","mem_stim_35.wav","true","0","","0","miss"
"","","","","","html-keyboard-response","232","412633","0.0-10.0-1.101","https://mcdermottlab.mit.edu/mturk_stimuli/bjmedina/mem_exp_ind-nature_2025/sequences/isi_16/len120/seq008_len120_s15_isi-1p0_0p0_16p0.json","10.870000000000001","true","l9vvaeojece","","null","<span style=""font-size: 40px"">+</span>","null","","","","","","","","","",""
"","","","","","audio-button-response","233","414968","0.0-10.0-2.101","https://mcdermottlab.mit.edu/mturk_stimuli/bjmedina/mem_exp_ind-nature_2025/sequences/isi_16/len120/seq008_len120_s15_isi-1p0_0p0_16p0.json","10.870000000000001","true","l9vvaeojece","","2341","https://mcdermottlab.mit.edu/mturk_stimuli/bjmedina/mem_exp_ind-nature_2025/mem_stim_65.wav","3","main","","","true","mem_stim_65.wav","false","16","","0","miss"
"","","","","","html-keyboard-response","234","415028","0.0-10.0-1.102","https://mcdermottlab.mit.edu/mturk_stimuli/bjmedina/mem_exp_ind-nature_2025/sequences/isi_16/len120/seq008_len120_s15_isi-1p0_0p0_16p0.json","10.870000000000001","true","l9vvaeojece","","null","<span style=""font-size: 40px"">+</span>","null","","","","","","","","","",""
"","","","","","audio-button-response","235","417758","0.0-10.0-2.102","https://mcdermottlab.mit.edu/mturk_stimuli/bjmedina/mem_exp_ind-nature_2025/sequences/isi_16/len120/seq008_len120_s15_isi-1p0_0p0_16p0.json","10.870000000000001","true","l9vvaeojece","","2429","https://mcdermottlab.mit.edu/mturk_stimuli/bjmedina/mem_exp_ind-nature_2025/mem_stim_47.wav","0","main","","","false","mem_stim_47.wav","false","-1","","1","correct_rejection"
"","","","","","html-keyboard-response","236","417836","0.0-10.0-1.103","https://mcdermottlab.mit.edu/mturk_stimuli/bjmedina/mem_exp_ind-nature_2025/sequences/isi_16/len120/seq008_len120_s15_isi-1p0_0p0_16p0.json","10.870000000000001","true","l9vvaeojece","","null","<span style=""font-size: 40px"">+</span>","null","","","","","","","","","",""
"","","","","","audio-button-response","237","420206","0.0-10.0-2.103","https://mcdermottlab.mit.edu/mturk_stimuli/bjmedina/mem_exp_ind-nature_2025/sequences/isi_16/len120/seq008_len120_s15_isi-1p0_0p0_16p0.json","10.870000000000001","true","l9vvaeojece","","2371","https://mcdermottlab.mit.edu/mturk_stimuli/bjmedina/mem_exp_ind-nature_2025/mem_stim_58.wav","3","main","","","true","mem_stim_58.wav","false","16","","0","miss"
"","","","","","html-keyboard-response","238","420283","0.0-10.0-1.104","https://mcdermottlab.mit.edu/mturk_stimuli/bjmedina/mem_exp_ind-nature_2025/sequences/isi_16/len120/seq008_len120_s15_isi-1p0_0p0_16p0.json","10.870000000000001","true","l9vvaeojece","","null","<span style=""font-size: 40px"">+</span>","null","","","","","","","","","",""
"","","","","","audio-button-response","239","422748","0.0-10.0-2.104","https://mcdermottlab.mit.edu/mturk_stimuli/bjmedina/mem_exp_ind-nature_2025/sequences/isi_16/len120/seq008_len120_s15_isi-1p0_0p0_16p0.json","10.870000000000001","true","l9vvaeojece","","2469","https://mcdermottlab.mit.edu/mturk_stimuli/bjmedina/mem_exp_ind-nature_2025/mem_stim_48.wav","3","main","","","true","mem_stim_48.wav","false","16","","0","miss"
"","","","","","html-keyboard-response","240","422826","0.0-10.0-1.105","https://mcdermottlab.mit.edu/mturk_stimuli/bjmedina/mem_exp_ind-nature_2025/sequences/isi_16/len120/seq008_len120_s15_isi-1p0_0p0_16p0.json","10.870000000000001","true","l9vvaeojece","","null","<span style=""font-size: 40px"">+</span>","null","","","","","","","","","",""
"","","","","","audio-button-response","241","425237","0.0-10.0-2.105","https://mcdermottlab.mit.edu/mturk_stimuli/bjmedina/mem_exp_ind-nature_2025/sequences/isi_16/len120/seq008_len120_s15_isi-1p0_0p0_16p0.json","10.870000000000001","true","l9vvaeojece","","2400","https://mcdermottlab.mit.edu/mturk_stimuli/bjmedina/mem_exp_ind-nature_2025/mem_stim_44.wav","3","main","","","true","mem_stim_44.wav","false","16","","0","miss"
"","","","","","html-keyboard-response","242","425313","0.0-10.0-1.106","https://mcdermottlab.mit.edu/mturk_stimuli/bjmedina/mem_exp_ind-nature_2025/sequences/isi_16/len120/seq008_len120_s15_isi-1p0_0p0_16p0.json","10.870000000000001","true","l9vvaeojece","","null","<span style=""font-size: 40px"">+</span>","null","","","","","","","","","",""
"","","","","","audio-button-response","243","427711","0.0-10.0-2.106","https://mcdermottlab.mit.edu/mturk_stimuli/bjmedina/mem_exp_ind-nature_2025/sequences/isi_16/len120/seq008_len120_s15_isi-1p0_0p0_16p0.json","10.870000000000001","true","l9vvaeojece","","2400","https://mcdermottlab.mit.edu/mturk_stimuli/bjmedina/mem_exp_ind-nature_2025/mem_stim_66.wav","3","main","","","true","mem_stim_66.wav","false","16","","0","miss"
"","","","","","html-keyboard-response","244","427790","0.0-10.0-1.107","https://mcdermottlab.mit.edu/mturk_stimuli/bjmedina/mem_exp_ind-nature_2025/sequences/isi_16/len120/seq008_len120_s15_isi-1p0_0p0_16p0.json","10.870000000000001","true","l9vvaeojece","","null","<span style=""font-size: 40px"">+</span>","null","","","","","","","","","",""
"","","","","","audio-button-response","245","430400","0.0-10.0-2.107","https://mcdermottlab.mit.edu/mturk_stimuli/bjmedina/mem_exp_ind-nature_2025/sequences/isi_16/len120/seq008_len120_s15_isi-1p0_0p0_16p0.json","10.870000000000001","true","l9vvaeojece","","2360","https://mcdermottlab.mit.edu/mturk_stimuli/bjmedina/mem_exp_ind-nature_2025/mem_stim_26.wav","0","main","","","false","mem_stim_26.wav","false","-1","","1","correct_rejection"
"","","","","","html-keyboard-response","246","430459","0.0-10.0-1.108","https://mcdermottlab.mit.edu/mturk_stimuli/bjmedina/mem_exp_ind-nature_2025/sequences/isi_16/len120/seq008_len120_s15_isi-1p0_0p0_16p0.json","10.870000000000001","true","l9vvaeojece","","null","<span style=""font-size: 40px"">+</span>","null","","","","","","","","","",""
"","","","","","audio-button-response","247","433158","0.0-10.0-2.108","https://mcdermottlab.mit.edu/mturk_stimuli/bjmedina/mem_exp_ind-nature_2025/sequences/isi_16/len120/seq008_len120_s15_isi-1p0_0p0_16p0.json","10.870000000000001","true","l9vvaeojece","","2509","https://mcdermottlab.mit.edu/mturk_stimuli/bjmedina/mem_exp_ind-nature_2025/mem_stim_9.wav","0","main","","","false","mem_stim_9.wav","false","-1","","1","correct_rejection"
"","","","","","html-keyboard-response","248","433219","0.0-10.0-1.109","https://mcdermottlab.mit.edu/mturk_stimuli/bjmedina/mem_exp_ind-nature_2025/sequences/isi_16/len120/seq008_len120_s15_isi-1p0_0p0_16p0.json","10.870000000000001","true","l9vvaeojece","","null","<span style=""font-size: 40px"">+</span>","null","","","","","","","","","",""
"","","","","","audio-button-response","249","435641","0.0-10.0-2.109","https://mcdermottlab.mit.edu/mturk_stimuli/bjmedina/mem_exp_ind-nature_2025/sequences/isi_16/len120/seq008_len120_s15_isi-1p0_0p0_16p0.json","10.870000000000001","true","l9vvaeojece","","2421","https://mcdermottlab.mit.edu/mturk_stimuli/bjmedina/mem_exp_ind-nature_2025/mem_stim_49.wav","3","main","","","true","mem_stim_49.wav","false","16","","0","miss"
"","","","","","html-keyboard-response","250","435701","0.0-10.0-1.110","https://mcdermottlab.mit.edu/mturk_stimuli/bjmedina/mem_exp_ind-nature_2025/sequences/isi_16/len120/seq008_len120_s15_isi-1p0_0p0_16p0.json","10.870000000000001","true","l9vvaeojece","","null","<span style=""font-size: 40px"">+</span>","null","","","","","","","","","",""
"","","","","","audio-button-response","251","438453","0.0-10.0-2.110","https://mcdermottlab.mit.edu/mturk_stimuli/bjmedina/mem_exp_ind-nature_2025/sequences/isi_16/len120/seq008_len120_s15_isi-1p0_0p0_16p0.json","10.870000000000001","true","l9vvaeojece","","2541","https://mcdermottlab.mit.edu/mturk_stimuli/bjmedina/mem_exp_ind-nature_2025/mem_stim_73.wav","1","main","","","false","mem_stim_73.wav","false","-1","","0","false_alarm"
"","","","","","html-keyboard-response","252","438516","0.0-10.0-1.111","https://mcdermottlab.mit.edu/mturk_stimuli/bjmedina/mem_exp_ind-nature_2025/sequences/isi_16/len120/seq008_len120_s15_isi-1p0_0p0_16p0.json","10.870000000000001","true","l9vvaeojece","","null","<span style=""font-size: 40px"">+</span>","null","","","","","","","","","",""
"","","","","","audio-button-response","253","441082","0.0-10.0-2.111","https://mcdermottlab.mit.edu/mturk_stimuli/bjmedina/mem_exp_ind-nature_2025/sequences/isi_16/len120/seq008_len120_s15_isi-1p0_0p0_16p0.json","10.870000000000001","true","l9vvaeojece","","2560","https://mcdermottlab.mit.edu/mturk_stimuli/bjmedina/mem_exp_ind-nature_2025/mem_stim_42.wav","3","main","","","true","mem_stim_42.wav","false","16","","0","miss"
"","","","","","html-keyboard-response","254","441145","0.0-10.0-1.112","https://mcdermottlab.mit.edu/mturk_stimuli/bjmedina/mem_exp_ind-nature_2025/sequences/isi_16/len120/seq008_len120_s15_isi-1p0_0p0_16p0.json","10.870000000000001","true","l9vvaeojece","","null","<span style=""font-size: 40px"">+</span>","null","","","","","","","","","",""
"","","","","","audio-button-response","255","445185","0.0-10.0-2.112","https://mcdermottlab.mit.edu/mturk_stimuli/bjmedina/mem_exp_ind-nature_2025/sequences/isi_16/len120/seq008_len120_s15_isi-1p0_0p0_16p0.json","10.870000000000001","true","l9vvaeojece","","3819","https://mcdermottlab.mit.edu/mturk_stimuli/bjmedina/mem_exp_ind-nature_2025/mem_stim_11.wav","2","main","","","false","mem_stim_11.wav","false","-1","","1","correct_rejection"
