"success","timeout","failed_images","failed_audio","failed_video","trial_type","trial_index","time_elapsed","internal_node_id","sequence_file","pay","passed_hc","completion_code","view_history","rt","stimulus","response","stim_type","hc_answer","correct_hc","repeat","yt_id","catch","isi","type","is_correct","response_type"
"true","false","[]","[]","[]","preload","0","54","0.0-0.0","https://mcdermottlab.mit.edu/mturk_stimuli/bjmedina/global-music-2025-n_80/sequences/isi_16/len120/seq052_len120_s10_isi-1p0_0p0_16p0.json","10.69","true","2cyrm1hqd12","","","","","","","","","","","","","",""
"","","","","","instructions","1","1376","0.0-1.0","https://mcdermottlab.mit.edu/mturk_stimuli/bjmedina/global-music-2025-n_80/sequences/isi_16/len120/seq052_len120_s10_isi-1p0_0p0_16p0.json","10.69","true","2cyrm1hqd12","[{""page_index"":0,""viewing_time"":1322}]","1322","","","","","","","","","","","",""
"","","","","","instructions","2","4015","0.0-2.0","https://mcdermottlab.mit.edu/mturk_stimuli/bjmedina/global-music-2025-n_80/sequences/isi_16/len120/seq052_len120_s10_isi-1p0_0p0_16p0.json","10.69","true","2cyrm1hqd12","[{""page_index"":0,""viewing_time"":2638}]","2638","","","","","","","","","","","",""
"","","","","","audio-button-response","3","5870","0.0-3.0-0.0","https://mcdermottlab.mit.edu/mturk_stimuli/bjmedina/global-music-2025-n_80/sequences/isi_16/len120/seq052_len120_s10_isi-1p0_0p0_16p0.json","10.69","true","2cyrm1hqd12","","1840","https://mcdermottlab.mit.edu/bjmedina/experiments/mem_exp_v01/assets/noise_calib_stim.wav","1","","","","","","","","","",""
"","","","","","instructions","4","7983","0.0-4.0","https://mcdermottlab.mit.edu/mturk_stimuli/bjmedina/global-music-2025-n_80/sequences/isi_16/len120/seq052_len120_s10_isi-1p0_0p0_16p0.json","10.69","true","2cyrm1hqd12","[{""page_index"":0,""viewing_time"":2112}]","2112","","","","","","","","","","","",""
"","","","","","audio-button-response","5","11895","0.0-5.0-0.0","https://mcdermottlab.mit.edu/mturk_stimuli/bjmedina/global-music-2025-n_80/sequences/isi_16/len120/seq052_len120_s10_isi-1p0_0p0_16p0.json","10.69","true","2cyrm1hqd12","","3680","https://mcdermottlab.mit.edu/bjmedina/experiments/mem_exp_v01/assets/antiphase_HC_OIS.wav","2","hc","3","1","","","","","","",""
"","","","","","audio-button-response","6","15760","0.0-5.0-0.1","https://mcdermottlab.mit.edu/mturk_stimuli/bjmedina/global-music-2025-n_80/sequences/isi_16/len120/seq052_len120_s10_isi-1p0_0p0_16p0.json","10.69","true","2cyrm1hqd12","","3640","https://mcdermottlab.mit.edu/bjmedina/experiments/mem_exp_v01/assets/antiphase_HC_SIO.wav","0","hc","1","1","","","","","","",""
"","","","","","audio-button-response","7","18236","0.0-5.0-0.2","https://mcdermottlab.mit.edu/mturk_stimuli/bjmedina/global-music-2025-n_80/sequences/isi_16/len120/seq052_len120_s10_isi-1p0_0p0_16p0.json","10.69","true","2cyrm1hqd12","","2229","https://mcdermottlab.mit.edu/bjmedina/experiments/mem_exp_v01/assets/antiphase_HC_ISO.wav","1","hc","2","1","","","","","","",""
"","","","","","audio-button-response","8","22001","0.0-5.0-0.3","https://mcdermottlab.mit.edu/mturk_stimuli/bjmedina/global-music-2025-n_80/sequences/isi_16/len120/seq052_len120_s10_isi-1p0_0p0_16p0.json","10.69","true","2cyrm1hqd12","","3539","https://mcdermottlab.mit.edu/bjmedina/experiments/mem_exp_v01/assets/antiphase_HC_IOS.wav","2","hc","3","1","","","","","","",""
"","","","","","audio-button-response","9","26820","0.0-5.0-0.4","https://mcdermottlab.mit.edu/mturk_stimuli/bjmedina/global-music-2025-n_80/sequences/isi_16/len120/seq052_len120_s10_isi-1p0_0p0_16p0.json","10.69","true","2cyrm1hqd12","","4592","https://mcdermottlab.mit.edu/bjmedina/experiments/mem_exp_v01/assets/antiphase_HC_SOI.wav","0","hc","1","1","","","","","","",""
"","","","","","audio-button-response","10","29512","0.0-5.0-0.5","https://mcdermottlab.mit.edu/mturk_stimuli/bjmedina/global-music-2025-n_80/sequences/isi_16/len120/seq052_len120_s10_isi-1p0_0p0_16p0.json","10.69","true","2cyrm1hqd12","","2459","https://mcdermottlab.mit.edu/bjmedina/experiments/mem_exp_v01/assets/antiphase_HC_OSI.wav","1","hc","2","1","","","","","","",""
"","","","","","html-keyboard-response","11","31685","0.0-6.0","https://mcdermottlab.mit.edu/mturk_stimuli/bjmedina/global-music-2025-n_80/sequences/isi_16/len120/seq052_len120_s10_isi-1p0_0p0_16p0.json","10.69","true","2cyrm1hqd12","","2172","<h1>You have finished the LOUDNESS task!</h1> <p>Press space to continue</p>"," ","","","","","","","","","",""
"","","","","","instructions","12","65369","0.0-7.0","https://mcdermottlab.mit.edu/mturk_stimuli/bjmedina/global-music-2025-n_80/sequences/isi_16/len120/seq052_len120_s10_isi-1p0_0p0_16p0.json","10.69","true","2cyrm1hqd12","[{""page_index"":0,""viewing_time"":3034},{""page_index"":1,""viewing_time"":3141},{""page_index"":2,""viewing_time"":21155},{""page_index"":3,""viewing_time"":1328},{""page_index"":2,""viewing_time"":2704},{""page_index"":3,""viewing_time"":2324}]","33685","","","","","","","","","","","",""
"","","","","","html-keyboard-response","13","65421","0.0-8.0-0.0","https://mcdermottlab.mit.edu/mturk_stimuli/bjmedina/global-music-2025-n_80/sequences/isi_16/len120/seq052_len120_s10_isi-1p0_0p0_16p0.json","10.69","true","2cyrm1hqd12","","null","<span style=""font-size: 40px"">+</span>","null","fixation","","","","","","","","",""
"","","","","","audio-button-response","14","68289","0.0-8.0-1.0","https://mcdermottlab.mit.edu/mturk_stimuli/bjmedina/global-music-2025-n_80/sequences/isi_16/len120/seq052_len120_s10_isi-1p0_0p0_16p0.json","10.69","true","2cyrm1hqd12","","2389","https://mcdermottlab.mit.edu/mturk_stimuli/bjmedina/mem_exp_v05/mem_stim_1023_f32.wav","0","demo","","","0","","","","","",""
"","","","","","html-keyboard-response","15","68340","0.0-8.0-0.1","https://mcdermottlab.mit.edu/mturk_stimuli/bjmedina/global-music-2025-n_80/sequences/isi_16/len120/seq052_len120_s10_isi-1p0_0p0_16p0.json","10.69","true","2cyrm1hqd12","","null","<span style=""font-size: 40px"">+</span>","null","fixation","","","","","","","","",""
"","","","","","audio-button-response","16","71041","0.0-8.0-1.1","https://mcdermottlab.mit.edu/mturk_stimuli/bjmedina/global-music-2025-n_80/sequences/isi_16/len120/seq052_len120_s10_isi-1p0_0p0_16p0.json","10.69","true","2cyrm1hqd12","","2339","https://mcdermottlab.mit.edu/mturk_stimuli/bjmedina/mem_exp_v05/mem_stim_1022_f32.wav","0","demo","","","0","","","","","",""
"","","","","","html-keyboard-response","17","71098","0.0-8.0-0.2","https://mcdermottlab.mit.edu/mturk_stimuli/bjmedina/global-music-2025-n_80/sequences/isi_16/len120/seq052_len120_s10_isi-1p0_0p0_16p0.json","10.69","true","2cyrm1hqd12","","null","<span style=""font-size: 40px"">+</span>","null","fixation","","","","","","","","",""
"","","","","","audio-button-response","18","73372","0.0-8.0-1.2","https://mcdermottlab.mit.edu/mturk_stimuli/bjmedina/global-music-2025-n_80/sequences/isi_16/len120/seq052_len120_s10_isi-1p0_0p0_16p0.json","10.69","true","2cyrm1hqd12","","2269","https://mcdermottlab.mit.edu/mturk_stimuli/bjmedina/mem_exp_v05/mem_stim_1022_f32.wav","3","demo","","","1","","","","","",""
"","","","","","html-keyboard-response","19","73434","0.0-8.0-0.3","https://mcdermottlab.mit.edu/mturk_stimuli/bjmedina/global-music-2025-n_80/sequences/isi_16/len120/seq052_len120_s10_isi-1p0_0p0_16p0.json","10.69","true","2cyrm1hqd12","","null","<span style=""font-size: 40px"">+</span>","null","fixation","","","","","","","","",""
"","","","","","audio-button-response","20","76126","0.0-8.0-1.3","https://mcdermottlab.mit.edu/mturk_stimuli/bjmedina/global-music-2025-n_80/sequences/isi_16/len120/seq052_len120_s10_isi-1p0_0p0_16p0.json","10.69","true","2cyrm1hqd12","","2320","https://mcdermottlab.mit.edu/mturk_stimuli/bjmedina/mem_exp_v05/mem_stim_1021_f32.wav","0","demo","","","0","","","","","",""
"","","","","","html-keyboard-response","21","76179","0.0-8.0-0.4","https://mcdermottlab.mit.edu/mturk_stimuli/bjmedina/global-music-2025-n_80/sequences/isi_16/len120/seq052_len120_s10_isi-1p0_0p0_16p0.json","10.69","true","2cyrm1hqd12","","null","<span style=""font-size: 40px"">+</span>","null","fixation","","","","","","","","",""
"","","","","","audio-button-response","22","78520","0.0-8.0-1.4","https://mcdermottlab.mit.edu/mturk_stimuli/bjmedina/global-music-2025-n_80/sequences/isi_16/len120/seq052_len120_s10_isi-1p0_0p0_16p0.json","10.69","true","2cyrm1hqd12","","2339","https://mcdermottlab.mit.edu/mturk_stimuli/bjmedina/mem_exp_v05/mem_stim_1023_f32.wav","0","demo","","","1","","","","","",""
"","","","","","html-keyboard-response","23","78571","0.0-8.0-0.5","https://mcdermottlab.mit.edu/mturk_stimuli/bjmedina/global-music-2025-n_80/sequences/isi_16/len120/seq052_len120_s10_isi-1p0_0p0_16p0.json","10.69","true","2cyrm1hqd12","","null","<span style=""font-size: 40px"">+</span>","null","fixation","","","","","","","","",""
"","","","","","audio-button-response","24","81148","0.0-8.0-1.5","https://mcdermottlab.mit.edu/mturk_stimuli/bjmedina/global-music-2025-n_80/sequences/isi_16/len120/seq052_len120_s10_isi-1p0_0p0_16p0.json","10.69","true","2cyrm1hqd12","","2352","https://mcdermottlab.mit.edu/mturk_stimuli/bjmedina/mem_exp_v05/mem_stim_1020_f32.wav","0","demo","","","0","","","","","",""
"","","","","","html-keyboard-response","25","81208","0.0-8.0-0.6","https://mcdermottlab.mit.edu/mturk_stimuli/bjmedina/global-music-2025-n_80/sequences/isi_16/len120/seq052_len120_s10_isi-1p0_0p0_16p0.json","10.69","true","2cyrm1hqd12","","null","<span style=""font-size: 40px"">+</span>","null","fixation","","","","","","","","",""
"","","","","","audio-button-response","26","83737","0.0-8.0-1.6","https://mcdermottlab.mit.edu/mturk_stimuli/bjmedina/global-music-2025-n_80/sequences/isi_16/len120/seq052_len120_s10_isi-1p0_0p0_16p0.json","10.69","true","2cyrm1hqd12","","2251","https://mcdermottlab.mit.edu/mturk_stimuli/bjmedina/mem_exp_v05/mem_stim_1019_f32.wav","0","demo","","","0","","","","","",""
"","","","","","html-keyboard-response","27","83796","0.0-8.0-0.7","https://mcdermottlab.mit.edu/mturk_stimuli/bjmedina/global-music-2025-n_80/sequences/isi_16/len120/seq052_len120_s10_isi-1p0_0p0_16p0.json","10.69","true","2cyrm1hqd12","","null","<span style=""font-size: 40px"">+</span>","null","fixation","","","","","","","","",""
"","","","","","audio-button-response","28","86134","0.0-8.0-1.7","https://mcdermottlab.mit.edu/mturk_stimuli/bjmedina/global-music-2025-n_80/sequences/isi_16/len120/seq052_len120_s10_isi-1p0_0p0_16p0.json","10.69","true","2cyrm1hqd12","","2341","https://mcdermottlab.mit.edu/mturk_stimuli/bjmedina/mem_exp_v05/mem_stim_1021_f32.wav","3","demo","","","1","","","","","",""
"","","","","","html-keyboard-response","29","87701","0.0-9.0","https://mcdermottlab.mit.edu/mturk_stimuli/bjmedina/global-music-2025-n_80/sequences/isi_16/len120/seq052_len120_s10_isi-1p0_0p0_16p0.json","10.69","true","2cyrm1hqd12","","1566","<p>You are now ready to start the experiment. Press SPACE when you are ready to start.</p>"," ","","","","","","","","","",""
"","","","","","html-keyboard-response","30","87759","0.0-10.0-1.0","https://mcdermottlab.mit.edu/mturk_stimuli/bjmedina/global-music-2025-n_80/sequences/isi_16/len120/seq052_len120_s10_isi-1p0_0p0_16p0.json","10.69","true","2cyrm1hqd12","","null","<span style=""font-size: 40px"">+</span>","null","","","","","","","","","",""
"","","","","","audio-button-response","31","90590","0.0-10.0-2.0","https://mcdermottlab.mit.edu/mturk_stimuli/bjmedina/global-music-2025-n_80/sequences/isi_16/len120/seq052_len120_s10_isi-1p0_0p0_16p0.json","10.69","true","2cyrm1hqd12","","2520","https://mcdermottlab.mit.edu/mturk_stimuli/bjmedina/global-music-2025-n_80/mem_stim_78.wav","0","main","","","false","mem_stim_78.wav","false","-1","","1","correct_rejection"
"","","","","","html-keyboard-response","32","90657","0.0-10.0-1.1","https://mcdermottlab.mit.edu/mturk_stimuli/bjmedina/global-music-2025-n_80/sequences/isi_16/len120/seq052_len120_s10_isi-1p0_0p0_16p0.json","10.69","true","2cyrm1hqd12","","null","<span style=""font-size: 40px"">+</span>","null","","","","","","","","","",""
"","","","","","audio-button-response","33","93244","0.0-10.0-2.1","https://mcdermottlab.mit.edu/mturk_stimuli/bjmedina/global-music-2025-n_80/sequences/isi_16/len120/seq052_len120_s10_isi-1p0_0p0_16p0.json","10.69","true","2cyrm1hqd12","","2371","https://mcdermottlab.mit.edu/mturk_stimuli/bjmedina/global-music-2025-n_80/mem_stim_46.wav","0","main","","","false","mem_stim_46.wav","false","-1","","1","correct_rejection"
"","","","","","html-keyboard-response","34","93296","0.0-10.0-1.2","https://mcdermottlab.mit.edu/mturk_stimuli/bjmedina/global-music-2025-n_80/sequences/isi_16/len120/seq052_len120_s10_isi-1p0_0p0_16p0.json","10.69","true","2cyrm1hqd12","","null","<span style=""font-size: 40px"">+</span>","null","","","","","","","","","",""
"","","","","","audio-button-response","35","95966","0.0-10.0-2.2","https://mcdermottlab.mit.edu/mturk_stimuli/bjmedina/global-music-2025-n_80/sequences/isi_16/len120/seq052_len120_s10_isi-1p0_0p0_16p0.json","10.69","true","2cyrm1hqd12","","2451","https://mcdermottlab.mit.edu/mturk_stimuli/bjmedina/global-music-2025-n_80/mem_stim_56.wav","0","main","","","false","mem_stim_56.wav","false","-1","","1","correct_rejection"
"","","","","","html-keyboard-response","36","96018","0.0-10.0-1.3","https://mcdermottlab.mit.edu/mturk_stimuli/bjmedina/global-music-2025-n_80/sequences/isi_16/len120/seq052_len120_s10_isi-1p0_0p0_16p0.json","10.69","true","2cyrm1hqd12","","null","<span style=""font-size: 40px"">+</span>","null","","","","","","","","","",""
"","","","","","audio-button-response","37","98611","0.0-10.0-2.3","https://mcdermottlab.mit.edu/mturk_stimuli/bjmedina/global-music-2025-n_80/sequences/isi_16/len120/seq052_len120_s10_isi-1p0_0p0_16p0.json","10.69","true","2cyrm1hqd12","","2421","https://mcdermottlab.mit.edu/mturk_stimuli/bjmedina/global-music-2025-n_80/mem_stim_63.wav","0","main","","","false","mem_stim_63.wav","false","-1","","1","correct_rejection"
"","","","","","html-keyboard-response","38","98667","0.0-10.0-1.4","https://mcdermottlab.mit.edu/mturk_stimuli/bjmedina/global-music-2025-n_80/sequences/isi_16/len120/seq052_len120_s10_isi-1p0_0p0_16p0.json","10.69","true","2cyrm1hqd12","","null","<span style=""font-size: 40px"">+</span>","null","","","","","","","","","",""
"","","","","","audio-button-response","39","101250","0.0-10.0-2.4","https://mcdermottlab.mit.edu/mturk_stimuli/bjmedina/global-music-2025-n_80/sequences/isi_16/len120/seq052_len120_s10_isi-1p0_0p0_16p0.json","10.69","true","2cyrm1hqd12","","2360","https://mcdermottlab.mit.edu/mturk_stimuli/bjmedina/global-music-2025-n_80/mem_stim_59.wav","0","main","","","false","mem_stim_59.wav","false","-1","","1","correct_rejection"
"","","","","","html-keyboard-response","40","101305","0.0-10.0-1.5","https://mcdermottlab.mit.edu/mturk_stimuli/bjmedina/global-music-2025-n_80/sequences/isi_16/len120/seq052_len120_s10_isi-1p0_0p0_16p0.json","10.69","true","2cyrm1hqd12","","null","<span style=""font-size: 40px"">+</span>","null","","","","","","","","","",""
"","","","","","audio-button-response","41","103603","0.0-10.0-2.5","https://mcdermottlab.mit.edu/mturk_stimuli/bjmedina/global-music-2025-n_80/sequences/isi_16/len120/seq052_len120_s10_isi-1p0_0p0_16p0.json","10.69","true","2cyrm1hqd12","","2299","https://mcdermottlab.mit.edu/mturk_stimuli/bjmedina/global-music-2025-n_80/mem_stim_59.wav","3","main","","","true","mem_stim_59.wav","true","0","","0","miss"
"","","","","","html-keyboard-response","42","103658","0.0-10.0-1.6","https://mcdermottlab.mit.edu/mturk_stimuli/bjmedina/global-music-2025-n_80/sequences/isi_16/len120/seq052_len120_s10_isi-1p0_0p0_16p0.json","10.69","true","2cyrm1hqd12","","null","<span style=""font-size: 40px"">+</span>","null","","","","","","","","","",""
"","","","","","audio-button-response","43","106234","0.0-10.0-2.6","https://mcdermottlab.mit.edu/mturk_stimuli/bjmedina/global-music-2025-n_80/sequences/isi_16/len120/seq052_len120_s10_isi-1p0_0p0_16p0.json","10.69","true","2cyrm1hqd12","","2339","https://mcdermottlab.mit.edu/mturk_stimuli/bjmedina/global-music-2025-n_80/mem_stim_32.wav","0","main","","","false","mem_stim_32.wav","false","-1","","1","correct_rejection"
"","","","","","html-keyboard-response","44","106289","0.0-10.0-1.7","https://mcdermottlab.mit.edu/mturk_stimuli/bjmedina/global-music-2025-n_80/sequences/isi_16/len120/seq052_len120_s10_isi-1p0_0p0_16p0.json","10.69","true","2cyrm1hqd12","","null","<span style=""font-size: 40px"">+</span>","null","","","","","","","","","",""
"","","","","","audio-button-response","45","108887","0.0-10.0-2.7","https://mcdermottlab.mit.edu/mturk_stimuli/bjmedina/global-music-2025-n_80/sequences/isi_16/len120/seq052_len120_s10_isi-1p0_0p0_16p0.json","10.69","true","2cyrm1hqd12","","2371","https://mcdermottlab.mit.edu/mturk_stimuli/bjmedina/global-music-2025-n_80/mem_stim_77.wav","0","main","","","false","mem_stim_77.wav","false","-1","","1","correct_rejection"
"","","","","","html-keyboard-response","46","108940","0.0-10.0-1.8","https://mcdermottlab.mit.edu/mturk_stimuli/bjmedina/global-music-2025-n_80/sequences/isi_16/len120/seq052_len120_s10_isi-1p0_0p0_16p0.json","10.69","true","2cyrm1hqd12","","null","<span style=""font-size: 40px"">+</span>","null","","","","","","","","","",""
"","","","","","audio-button-response","47","111495","0.0-10.0-2.8","https://mcdermottlab.mit.edu/mturk_stimuli/bjmedina/global-music-2025-n_80/sequences/isi_16/len120/seq052_len120_s10_isi-1p0_0p0_16p0.json","10.69","true","2cyrm1hqd12","","2331","https://mcdermottlab.mit.edu/mturk_stimuli/bjmedina/global-music-2025-n_80/mem_stim_31.wav","1","main","","","false","mem_stim_31.wav","false","-1","","0","false_alarm"
"","","","","","html-keyboard-response","48","111549","0.0-10.0-1.9","https://mcdermottlab.mit.edu/mturk_stimuli/bjmedina/global-music-2025-n_80/sequences/isi_16/len120/seq052_len120_s10_isi-1p0_0p0_16p0.json","10.69","true","2cyrm1hqd12","","null","<span style=""font-size: 40px"">+</span>","null","","","","","","","","","",""
"","","","","","audio-button-response","49","114209","0.0-10.0-2.9","https://mcdermottlab.mit.edu/mturk_stimuli/bjmedina/global-music-2025-n_80/sequences/isi_16/len120/seq052_len120_s10_isi-1p0_0p0_16p0.json","10.69","true","2cyrm1hqd12","","2451","https://mcdermottlab.mit.edu/mturk_stimuli/bjmedina/global-music-2025-n_80/mem_stim_13.wav","3","main","","","false","mem_stim_13.wav","false","-1","","1","correct_rejection"
"","","","","","html-keyboard-response","50","114263","0.0-10.0-1.10","https://mcdermottlab.mit.edu/mturk_stimuli/bjmedina/global-music-2025-n_80/sequences/isi_16/len120/seq052_len120_s10_isi-1p0_0p0_16p0.json","10.69","true","2cyrm1hqd12","","null","<span style=""font-size: 40px"">+</span>","null","","","","","","","","","",""
"","","","","","audio-button-response","51","116859","0.0-10.0-2.10","https://mcdermottlab.mit.edu/mturk_stimuli/bjmedina/global-music-2025-n_80/sequences/isi_16/len120/seq052_len120_s10_isi-1p0_0p0_16p0.json","10.69","true","2cyrm1hqd12","","2381","https://mcdermottlab.mit.edu/mturk_stimuli/bjmedina/global-music-2025-n_80/mem_stim_67.wav","3","main","","","false","mem_stim_67.wav","false","-1","","1","correct_rejection"
"","","","","","html-keyboard-response","52","116914","0.0-10.0-1.11","https://mcdermottlab.mit.edu/mturk_stimuli/bjmedina/global-music-2025-n_80/sequences/isi_16/len120/seq052_len120_s10_isi-1p0_0p0_16p0.json","10.69","true","2cyrm1hqd12","","null","<span style=""font-size: 40px"">+</span>","null","","","","","","","","","",""
"","","","","","audio-button-response","53","119505","0.0-10.0-2.11","https://mcdermottlab.mit.edu/mturk_stimuli/bjmedina/global-music-2025-n_80/sequences/isi_16/len120/seq052_len120_s10_isi-1p0_0p0_16p0.json","10.69","true","2cyrm1hqd12","","2371","https://mcdermottlab.mit.edu/mturk_stimuli/bjmedina/global-music-2025-n_80/mem_stim_44.wav","1","main","","","false","mem_stim_44.wav","false","-1","","0","false_alarm"
"","","","","","html-keyboard-response","54","119558","0.0-10.0-1.12","https://mcdermottlab.mit.edu/mturk_stimuli/bjmedina/global-music-2025-n_80/sequences/isi_16/len120/seq052_len120_s10_isi-1p0_0p0_16p0.json","10.69","true","2cyrm1hqd12","","null","<span style=""font-size: 40px"">+</span>","null","","","","","","","","","",""
"","","","","","audio-button-response","55","122072","0.0-10.0-2.12","https://mcdermottlab.mit.edu/mturk_stimuli/bjmedina/global-music-2025-n_80/sequences/isi_16/len120/seq052_len120_s10_isi-1p0_0p0_16p0.json","10.69","true","2cyrm1hqd12","","2299","https://mcdermottlab.mit.edu/mturk_stimuli/bjmedina/global-music-2025-n_80/mem_stim_65.wav","0","main","","","false","mem_stim_65.wav","false","-1","","1","correct_rejection"
"","","","","","html-keyboard-response","56","122127","0.0-10.0-1.13","https://mcdermottlab.mit.edu/mturk_stimuli/bjmedina/global-music-2025-n_80/sequences/isi_16/len120/seq052_len120_s10_isi-1p0_0p0_16p0.json","10.69","true","2cyrm1hqd12","","null","<span style=""font-size: 40px"">+</span>","null","","","","","","","","","",""
"","","","","","audio-button-response","57","124688","0.0-10.0-2.13","https://mcdermottlab.mit.edu/mturk_stimuli/bjmedina/global-music-2025-n_80/sequences/isi_16/len120/seq052_len120_s10_isi-1p0_0p0_16p0.json","10.69","true","2cyrm1hqd12","","2349","https://mcdermottlab.mit.edu/mturk_stimuli/bjmedina/global-music-2025-n_80/mem_stim_50.wav","0","main","","","false","mem_stim_50.wav","false","-1","","1","correct_rejection"
"","","","","","html-keyboard-response","58","124743","0.0-10.0-1.14","https://mcdermottlab.mit.edu/mturk_stimuli/bjmedina/global-music-2025-n_80/sequences/isi_16/len120/seq052_len120_s10_isi-1p0_0p0_16p0.json","10.69","true","2cyrm1hqd12","","null","<span style=""font-size: 40px"">+</span>","null","","","","","","","","","",""
"","","","","","audio-button-response","59","127299","0.0-10.0-2.14","https://mcdermottlab.mit.edu/mturk_stimuli/bjmedina/global-music-2025-n_80/sequences/isi_16/len120/seq052_len120_s10_isi-1p0_0p0_16p0.json","10.69","true","2cyrm1hqd12","","2381","https://mcdermottlab.mit.edu/mturk_stimuli/bjmedina/global-music-2025-n_80/mem_stim_24.wav","0","main","","","false","mem_stim_24.wav","false","-1","","1","correct_rejection"
"","","","","","html-keyboard-response","60","127355","0.0-10.0-1.15","https://mcdermottlab.mit.edu/mturk_stimuli/bjmedina/global-music-2025-n_80/sequences/isi_16/len120/seq052_len120_s10_isi-1p0_0p0_16p0.json","10.69","true","2cyrm1hqd12","","null","<span style=""font-size: 40px"">+</span>","null","","","","","","","","","",""
"","","","","","audio-button-response","61","129932","0.0-10.0-2.15","https://mcdermottlab.mit.edu/mturk_stimuli/bjmedina/global-music-2025-n_80/sequences/isi_16/len120/seq052_len120_s10_isi-1p0_0p0_16p0.json","10.69","true","2cyrm1hqd12","","2360","https://mcdermottlab.mit.edu/mturk_stimuli/bjmedina/global-music-2025-n_80/mem_stim_69.wav","0","main","","","false","mem_stim_69.wav","false","-1","","1","correct_rejection"
"","","","","","html-keyboard-response","62","129987","0.0-10.0-1.16","https://mcdermottlab.mit.edu/mturk_stimuli/bjmedina/global-music-2025-n_80/sequences/isi_16/len120/seq052_len120_s10_isi-1p0_0p0_16p0.json","10.69","true","2cyrm1hqd12","","null","<span style=""font-size: 40px"">+</span>","null","","","","","","","","","",""
"","","","","","audio-button-response","63","132800","0.0-10.0-2.16","https://mcdermottlab.mit.edu/mturk_stimuli/bjmedina/global-music-2025-n_80/sequences/isi_16/len120/seq052_len120_s10_isi-1p0_0p0_16p0.json","10.69","true","2cyrm1hqd12","","2600","https://mcdermottlab.mit.edu/mturk_stimuli/bjmedina/global-music-2025-n_80/mem_stim_1.wav","0","main","","","false","mem_stim_1.wav","false","-1","","1","correct_rejection"
"","","","","","html-keyboard-response","64","132855","0.0-10.0-1.17","https://mcdermottlab.mit.edu/mturk_stimuli/bjmedina/global-music-2025-n_80/sequences/isi_16/len120/seq052_len120_s10_isi-1p0_0p0_16p0.json","10.69","true","2cyrm1hqd12","","null","<span style=""font-size: 40px"">+</span>","null","","","","","","","","","",""
"","","","","","audio-button-response","65","135131","0.0-10.0-2.17","https://mcdermottlab.mit.edu/mturk_stimuli/bjmedina/global-music-2025-n_80/sequences/isi_16/len120/seq052_len120_s10_isi-1p0_0p0_16p0.json","10.69","true","2cyrm1hqd12","","2280","https://mcdermottlab.mit.edu/mturk_stimuli/bjmedina/global-music-2025-n_80/mem_stim_1.wav","3","main","","","true","mem_stim_1.wav","true","0","","0","miss"
"","","","","","html-keyboard-response","66","135184","0.0-10.0-1.18","https://mcdermottlab.mit.edu/mturk_stimuli/bjmedina/global-music-2025-n_80/sequences/isi_16/len120/seq052_len120_s10_isi-1p0_0p0_16p0.json","10.69","true","2cyrm1hqd12","","null","<span style=""font-size: 40px"">+</span>","null","","","","","","","","","",""
"","","","","","audio-button-response","67","137490","0.0-10.0-2.18","https://mcdermottlab.mit.edu/mturk_stimuli/bjmedina/global-music-2025-n_80/sequences/isi_16/len120/seq052_len120_s10_isi-1p0_0p0_16p0.json","10.69","true","2cyrm1hqd12","","2309","https://mcdermottlab.mit.edu/mturk_stimuli/bjmedina/global-music-2025-n_80/mem_stim_46.wav","2","main","","","true","mem_stim_46.wav","false","16","","0","miss"
"","","","","","html-keyboard-response","68","137546","0.0-10.0-1.19","https://mcdermottlab.mit.edu/mturk_stimuli/bjmedina/global-music-2025-n_80/sequences/isi_16/len120/seq052_len120_s10_isi-1p0_0p0_16p0.json","10.69","true","2cyrm1hqd12","","null","<span style=""font-size: 40px"">+</span>","null","","","","","","","","","",""
"","","","","","audio-button-response","69","140131","0.0-10.0-2.19","https://mcdermottlab.mit.edu/mturk_stimuli/bjmedina/global-music-2025-n_80/sequences/isi_16/len120/seq052_len120_s10_isi-1p0_0p0_16p0.json","10.69","true","2cyrm1hqd12","","2371","https://mcdermottlab.mit.edu/mturk_stimuli/bjmedina/global-music-2025-n_80/mem_stim_37.wav","1","main","","","false","mem_stim_37.wav","false","-1","","0","false_alarm"
"","","","","","html-keyboard-response","70","140186","0.0-10.0-1.20","https://mcdermottlab.mit.edu/mturk_stimuli/bjmedina/global-music-2025-n_80/sequences/isi_16/len120/seq052_len120_s10_isi-1p0_0p0_16p0.json","10.69","true","2cyrm1hqd12","","null","<span style=""font-size: 40px"">+</span>","null","","","","","","","","","",""
"","","","","","audio-button-response","71","142648","0.0-10.0-2.20","https://mcdermottlab.mit.edu/mturk_stimuli/bjmedina/global-music-2025-n_80/sequences/isi_16/len120/seq052_len120_s10_isi-1p0_0p0_16p0.json","10.69","true","2cyrm1hqd12","","2469","https://mcdermottlab.mit.edu/mturk_stimuli/bjmedina/global-music-2025-n_80/mem_stim_63.wav","1","main","","","true","mem_stim_63.wav","false","16","","1","hit"
"","","","","","html-keyboard-response","72","142704","0.0-10.0-1.21","https://mcdermottlab.mit.edu/mturk_stimuli/bjmedina/global-music-2025-n_80/sequences/isi_16/len120/seq052_len120_s10_isi-1p0_0p0_16p0.json","10.69","true","2cyrm1hqd12","","null","<span style=""font-size: 40px"">+</span>","null","","","","","","","","","",""
"","","","","","audio-button-response","73","145241","0.0-10.0-2.21","https://mcdermottlab.mit.edu/mturk_stimuli/bjmedina/global-music-2025-n_80/sequences/isi_16/len120/seq052_len120_s10_isi-1p0_0p0_16p0.json","10.69","true","2cyrm1hqd12","","2349","https://mcdermottlab.mit.edu/mturk_stimuli/bjmedina/global-music-2025-n_80/mem_stim_74.wav","0","main","","","false","mem_stim_74.wav","false","-1","","1","correct_rejection"
"","","","","","html-keyboard-response","74","145295","0.0-10.0-1.22","https://mcdermottlab.mit.edu/mturk_stimuli/bjmedina/global-music-2025-n_80/sequences/isi_16/len120/seq052_len120_s10_isi-1p0_0p0_16p0.json","10.69","true","2cyrm1hqd12","","null","<span style=""font-size: 40px"">+</span>","null","","","","","","","","","",""
"","","","","","audio-button-response","75","147853","0.0-10.0-2.22","https://mcdermottlab.mit.edu/mturk_stimuli/bjmedina/global-music-2025-n_80/sequences/isi_16/len120/seq052_len120_s10_isi-1p0_0p0_16p0.json","10.69","true","2cyrm1hqd12","","2331","https://mcdermottlab.mit.edu/mturk_stimuli/bjmedina/global-music-2025-n_80/mem_stim_19.wav","1","main","","","false","mem_stim_19.wav","false","-1","","0","false_alarm"
"","","","","","html-keyboard-response","76","147910","0.0-10.0-1.23","https://mcdermottlab.mit.edu/mturk_stimuli/bjmedina/global-music-2025-n_80/sequences/isi_16/len120/seq052_len120_s10_isi-1p0_0p0_16p0.json","10.69","true","2cyrm1hqd12","","null","<span style=""font-size: 40px"">+</span>","null","","","","","","","","","",""
"","","","","","audio-button-response","77","150095","0.0-10.0-2.23","https://mcdermottlab.mit.edu/mturk_stimuli/bjmedina/global-music-2025-n_80/sequences/isi_16/len120/seq052_len120_s10_isi-1p0_0p0_16p0.json","10.69","true","2cyrm1hqd12","","2181","https://mcdermottlab.mit.edu/mturk_stimuli/bjmedina/global-music-2025-n_80/mem_stim_32.wav","2","main","","","true","mem_stim_32.wav","false","16","","0","miss"
"","","","","","html-keyboard-response","78","150149","0.0-10.0-1.24","https://mcdermottlab.mit.edu/mturk_stimuli/bjmedina/global-music-2025-n_80/sequences/isi_16/len120/seq052_len120_s10_isi-1p0_0p0_16p0.json","10.69","true","2cyrm1hqd12","","null","<span style=""font-size: 40px"">+</span>","null","","","","","","","","","",""
"","","","","","audio-button-response","79","152286","0.0-10.0-2.24","https://mcdermottlab.mit.edu/mturk_stimuli/bjmedina/global-music-2025-n_80/sequences/isi_16/len120/seq052_len120_s10_isi-1p0_0p0_16p0.json","10.69","true","2cyrm1hqd12","","2131","https://mcdermottlab.mit.edu/mturk_stimuli/bjmedina/global-music-2025-n_80/mem_stim_77.wav","2","main","","","true","mem_stim_77.wav","false","16","","0","miss"
"","","","","","html-keyboard-response","80","152342","0.0-10.0-1.25","https://mcdermottlab.mit.edu/mturk_stimuli/bjmedina/global-music-2025-n_80/sequences/isi_16/len120/seq052_len120_s10_isi-1p0_0p0_16p0.json","10.69","true","2cyrm1hqd12","","null","<span style=""font-size: 40px"">+</span>","null","","","","","","","","","",""
"","","","","","audio-button-response","81","154860","0.0-10.0-2.25","https://mcdermottlab.mit.edu/mturk_stimuli/bjmedina/global-music-2025-n_80/sequences/isi_16/len120/seq052_len120_s10_isi-1p0_0p0_16p0.json","10.69","true","2cyrm1hqd12","","2301","https://mcdermottlab.mit.edu/mturk_stimuli/bjmedina/global-music-2025-n_80/mem_stim_48.wav","0","main","","","false","mem_stim_48.wav","false","-1","","1","correct_rejection"
"","","","","","html-keyboard-response","82","154921","0.0-10.0-1.26","https://mcdermottlab.mit.edu/mturk_stimuli/bjmedina/global-music-2025-n_80/sequences/isi_16/len120/seq052_len120_s10_isi-1p0_0p0_16p0.json","10.69","true","2cyrm1hqd12","","null","<span style=""font-size: 40px"">+</span>","null","","","","","","","","","",""
"","","","","","audio-button-response","83","157020","0.0-10.0-2.26","https://mcdermottlab.mit.edu/mturk_stimuli/bjmedina/global-music-2025-n_80/sequences/isi_16/len120/seq052_len120_s10_isi-1p0_0p0_16p0.json","10.69","true","2cyrm1hqd12","","2101","https://mcdermottlab.mit.edu/mturk_stimuli/bjmedina/global-music-2025-n_80/mem_stim_13.wav","3","main","","","true","mem_stim_13.wav","false","16","","0","miss"
"","","","","","html-keyboard-response","84","157074","0.0-10.0-1.27","https://mcdermottlab.mit.edu/mturk_stimuli/bjmedina/global-music-2025-n_80/sequences/isi_16/len120/seq052_len120_s10_isi-1p0_0p0_16p0.json","10.69","true","2cyrm1hqd12","","null","<span style=""font-size: 40px"">+</span>","null","","","","","","","","","",""
"","","","","","audio-button-response","85","159545","0.0-10.0-2.27","https://mcdermottlab.mit.edu/mturk_stimuli/bjmedina/global-music-2025-n_80/sequences/isi_16/len120/seq052_len120_s10_isi-1p0_0p0_16p0.json","10.69","true","2cyrm1hqd12","","2291","https://mcdermottlab.mit.edu/mturk_stimuli/bjmedina/global-music-2025-n_80/mem_stim_33.wav","2","main","","","false","mem_stim_33.wav","false","-1","","1","correct_rejection"
"","","","","","html-keyboard-response","86","159600","0.0-10.0-1.28","https://mcdermottlab.mit.edu/mturk_stimuli/bjmedina/global-music-2025-n_80/sequences/isi_16/len120/seq052_len120_s10_isi-1p0_0p0_16p0.json","10.69","true","2cyrm1hqd12","","null","<span style=""font-size: 40px"">+</span>","null","","","","","","","","","",""
"","","","","","audio-button-response","87","161845","0.0-10.0-2.28","https://mcdermottlab.mit.edu/mturk_stimuli/bjmedina/global-music-2025-n_80/sequences/isi_16/len120/seq052_len120_s10_isi-1p0_0p0_16p0.json","10.69","true","2cyrm1hqd12","","2069","https://mcdermottlab.mit.edu/mturk_stimuli/bjmedina/global-music-2025-n_80/mem_stim_40.wav","0","main","","","false","mem_stim_40.wav","false","-1","","1","correct_rejection"
"","","","","","html-keyboard-response","88","161899","0.0-10.0-1.29","https://mcdermottlab.mit.edu/mturk_stimuli/bjmedina/global-music-2025-n_80/sequences/isi_16/len120/seq052_len120_s10_isi-1p0_0p0_16p0.json","10.69","true","2cyrm1hqd12","","null","<span style=""font-size: 40px"">+</span>","null","","","","","","","","","",""
"","","","","","audio-button-response","89","164588","0.0-10.0-2.29","https://mcdermottlab.mit.edu/mturk_stimuli/bjmedina/global-music-2025-n_80/sequences/isi_16/len120/seq052_len120_s10_isi-1p0_0p0_16p0.json","10.69","true","2cyrm1hqd12","","2512","https://mcdermottlab.mit.edu/mturk_stimuli/bjmedina/global-music-2025-n_80/mem_stim_29.wav","1","main","","","false","mem_stim_29.wav","false","-1","","0","false_alarm"
"","","","","","html-keyboard-response","90","164644","0.0-10.0-1.30","https://mcdermottlab.mit.edu/mturk_stimuli/bjmedina/global-music-2025-n_80/sequences/isi_16/len120/seq052_len120_s10_isi-1p0_0p0_16p0.json","10.69","true","2cyrm1hqd12","","null","<span style=""font-size: 40px"">+</span>","null","","","","","","","","","",""
"","","","","","audio-button-response","91","166901","0.0-10.0-2.30","https://mcdermottlab.mit.edu/mturk_stimuli/bjmedina/global-music-2025-n_80/sequences/isi_16/len120/seq052_len120_s10_isi-1p0_0p0_16p0.json","10.69","true","2cyrm1hqd12","","2261","https://mcdermottlab.mit.edu/mturk_stimuli/bjmedina/global-music-2025-n_80/mem_stim_50.wav","2","main","","","true","mem_stim_50.wav","false","16","","0","miss"
"","","","","","html-keyboard-response","92","166962","0.0-10.0-1.31","https://mcdermottlab.mit.edu/mturk_stimuli/bjmedina/global-music-2025-n_80/sequences/isi_16/len120/seq052_len120_s10_isi-1p0_0p0_16p0.json","10.69","true","2cyrm1hqd12","","null","<span style=""font-size: 40px"">+</span>","null","","","","","","","","","",""
"","","","","","audio-button-response","93","169466","0.0-10.0-2.31","https://mcdermottlab.mit.edu/mturk_stimuli/bjmedina/global-music-2025-n_80/sequences/isi_16/len120/seq052_len120_s10_isi-1p0_0p0_16p0.json","10.69","true","2cyrm1hqd12","","2272","https://mcdermottlab.mit.edu/mturk_stimuli/bjmedina/global-music-2025-n_80/mem_stim_68.wav","2","main","","","false","mem_stim_68.wav","false","-1","","1","correct_rejection"
"","","","","","html-keyboard-response","94","169520","0.0-10.0-1.32","https://mcdermottlab.mit.edu/mturk_stimuli/bjmedina/global-music-2025-n_80/sequences/isi_16/len120/seq052_len120_s10_isi-1p0_0p0_16p0.json","10.69","true","2cyrm1hqd12","","null","<span style=""font-size: 40px"">+</span>","null","","","","","","","","","",""
"","","","","","audio-button-response","95","171850","0.0-10.0-2.32","https://mcdermottlab.mit.edu/mturk_stimuli/bjmedina/global-music-2025-n_80/sequences/isi_16/len120/seq052_len120_s10_isi-1p0_0p0_16p0.json","10.69","true","2cyrm1hqd12","","2331","https://mcdermottlab.mit.edu/mturk_stimuli/bjmedina/global-music-2025-n_80/mem_stim_69.wav","1","main","","","true","mem_stim_69.wav","false","16","","1","hit"
"","","","","","html-keyboard-response","96","171910","0.0-10.0-1.33","https://mcdermottlab.mit.edu/mturk_stimuli/bjmedina/global-music-2025-n_80/sequences/isi_16/len120/seq052_len120_s10_isi-1p0_0p0_16p0.json","10.69","true","2cyrm1hqd12","","null","<span style=""font-size: 40px"">+</span>","null","","","","","","","","","",""
"","","","","","audio-button-response","97","174104","0.0-10.0-2.33","https://mcdermottlab.mit.edu/mturk_stimuli/bjmedina/global-music-2025-n_80/sequences/isi_16/len120/seq052_len120_s10_isi-1p0_0p0_16p0.json","10.69","true","2cyrm1hqd12","","2021","https://mcdermottlab.mit.edu/mturk_stimuli/bjmedina/global-music-2025-n_80/mem_stim_18.wav","0","main","","","false","mem_stim_18.wav","false","-1","","1","correct_rejection"
"","","","","","html-keyboard-response","98","174160","0.0-10.0-1.34","https://mcdermottlab.mit.edu/mturk_stimuli/bjmedina/global-music-2025-n_80/sequences/isi_16/len120/seq052_len120_s10_isi-1p0_0p0_16p0.json","10.69","true","2cyrm1hqd12","","null","<span style=""font-size: 40px"">+</span>","null","","","","","","","","","",""
"","","","","","audio-button-response","99","176657","0.0-10.0-2.34","https://mcdermottlab.mit.edu/mturk_stimuli/bjmedina/global-music-2025-n_80/sequences/isi_16/len120/seq052_len120_s10_isi-1p0_0p0_16p0.json","10.69","true","2cyrm1hqd12","","2309","https://mcdermottlab.mit.edu/mturk_stimuli/bjmedina/global-music-2025-n_80/mem_stim_26.wav","1","main","","","false","mem_stim_26.wav","false","-1","","0","false_alarm"
"","","","","","html-keyboard-response","100","176712","0.0-10.0-1.35","https://mcdermottlab.mit.edu/mturk_stimuli/bjmedina/global-music-2025-n_80/sequences/isi_16/len120/seq052_len120_s10_isi-1p0_0p0_16p0.json","10.69","true","2cyrm1hqd12","","null","<span style=""font-size: 40px"">+</span>","null","","","","","","","","","",""
"","","","","","audio-button-response","101","178858","0.0-10.0-2.35","https://mcdermottlab.mit.edu/mturk_stimuli/bjmedina/global-music-2025-n_80/sequences/isi_16/len120/seq052_len120_s10_isi-1p0_0p0_16p0.json","10.69","true","2cyrm1hqd12","","2141","https://mcdermottlab.mit.edu/mturk_stimuli/bjmedina/global-music-2025-n_80/mem_stim_26.wav","3","main","","","true","mem_stim_26.wav","true","0","","0","miss"
"","","","","","html-keyboard-response","102","178914","0.0-10.0-1.36","https://mcdermottlab.mit.edu/mturk_stimuli/bjmedina/global-music-2025-n_80/sequences/isi_16/len120/seq052_len120_s10_isi-1p0_0p0_16p0.json","10.69","true","2cyrm1hqd12","","null","<span style=""font-size: 40px"">+</span>","null","","","","","","","","","",""
"","","","","","audio-button-response","103","181135","0.0-10.0-2.36","https://mcdermottlab.mit.edu/mturk_stimuli/bjmedina/global-music-2025-n_80/sequences/isi_16/len120/seq052_len120_s10_isi-1p0_0p0_16p0.json","10.69","true","2cyrm1hqd12","","2221","https://mcdermottlab.mit.edu/mturk_stimuli/bjmedina/global-music-2025-n_80/mem_stim_37.wav","3","main","","","true","mem_stim_37.wav","false","16","","0","miss"
"","","","","","html-keyboard-response","104","181194","0.0-10.0-1.37","https://mcdermottlab.mit.edu/mturk_stimuli/bjmedina/global-music-2025-n_80/sequences/isi_16/len120/seq052_len120_s10_isi-1p0_0p0_16p0.json","10.69","true","2cyrm1hqd12","","null","<span style=""font-size: 40px"">+</span>","null","","","","","","","","","",""
"","","","","","audio-button-response","105","183445","0.0-10.0-2.37","https://mcdermottlab.mit.edu/mturk_stimuli/bjmedina/global-music-2025-n_80/sequences/isi_16/len120/seq052_len120_s10_isi-1p0_0p0_16p0.json","10.69","true","2cyrm1hqd12","","2029","https://mcdermottlab.mit.edu/mturk_stimuli/bjmedina/global-music-2025-n_80/mem_stim_5.wav","0","main","","","false","mem_stim_5.wav","false","-1","","1","correct_rejection"
"","","","","","html-keyboard-response","106","183513","0.0-10.0-1.38","https://mcdermottlab.mit.edu/mturk_stimuli/bjmedina/global-music-2025-n_80/sequences/isi_16/len120/seq052_len120_s10_isi-1p0_0p0_16p0.json","10.69","true","2cyrm1hqd12","","null","<span style=""font-size: 40px"">+</span>","null","","","","","","","","","",""
"","","","","","audio-button-response","107","185876","0.0-10.0-2.38","https://mcdermottlab.mit.edu/mturk_stimuli/bjmedina/global-music-2025-n_80/sequences/isi_16/len120/seq052_len120_s10_isi-1p0_0p0_16p0.json","10.69","true","2cyrm1hqd12","","2360","https://mcdermottlab.mit.edu/mturk_stimuli/bjmedina/global-music-2025-n_80/mem_stim_74.wav","0","main","","","true","mem_stim_74.wav","false","16","","0","miss"
"","","","","","html-keyboard-response","108","185931","0.0-10.0-1.39","https://mcdermottlab.mit.edu/mturk_stimuli/bjmedina/global-music-2025-n_80/sequences/isi_16/len120/seq052_len120_s10_isi-1p0_0p0_16p0.json","10.69","true","2cyrm1hqd12","","null","<span style=""font-size: 40px"">+</span>","null","","","","","","","","","",""
"","","","","","audio-button-response","109","188576","0.0-10.0-2.39","https://mcdermottlab.mit.edu/mturk_stimuli/bjmedina/global-music-2025-n_80/sequences/isi_16/len120/seq052_len120_s10_isi-1p0_0p0_16p0.json","10.69","true","2cyrm1hqd12","","2461","https://mcdermottlab.mit.edu/mturk_stimuli/bjmedina/global-music-2025-n_80/mem_stim_70.wav","1","main","","","false","mem_stim_70.wav","false","-1","","0","false_alarm"
"","","","","","html-keyboard-response","110","188637","0.0-10.0-1.40","https://mcdermottlab.mit.edu/mturk_stimuli/bjmedina/global-music-2025-n_80/sequences/isi_16/len120/seq052_len120_s10_isi-1p0_0p0_16p0.json","10.69","true","2cyrm1hqd12","","null","<span style=""font-size: 40px"">+</span>","null","","","","","","","","","",""
"","","","","","audio-button-response","111","191226","0.0-10.0-2.40","https://mcdermottlab.mit.edu/mturk_stimuli/bjmedina/global-music-2025-n_80/sequences/isi_16/len120/seq052_len120_s10_isi-1p0_0p0_16p0.json","10.69","true","2cyrm1hqd12","","2411","https://mcdermottlab.mit.edu/mturk_stimuli/bjmedina/global-music-2025-n_80/mem_stim_12.wav","1","main","","","false","mem_stim_12.wav","false","-1","","0","false_alarm"
"","","","","","html-keyboard-response","112","191281","0.0-10.0-1.41","https://mcdermottlab.mit.edu/mturk_stimuli/bjmedina/global-music-2025-n_80/sequences/isi_16/len120/seq052_len120_s10_isi-1p0_0p0_16p0.json","10.69","true","2cyrm1hqd12","","null","<span style=""font-size: 40px"">+</span>","null","","","","","","","","","",""
"","","","","","audio-button-response","113","193837","0.0-10.0-2.41","https://mcdermottlab.mit.edu/mturk_stimuli/bjmedina/global-music-2025-n_80/sequences/isi_16/len120/seq052_len120_s10_isi-1p0_0p0_16p0.json","10.69","true","2cyrm1hqd12","","2328","https://mcdermottlab.mit.edu/mturk_stimuli/bjmedina/global-music-2025-n_80/mem_stim_39.wav","0","main","","","false","mem_stim_39.wav","false","-1","","1","correct_rejection"
"","","","","","html-keyboard-response","114","193896","0.0-10.0-1.42","https://mcdermottlab.mit.edu/mturk_stimuli/bjmedina/global-music-2025-n_80/sequences/isi_16/len120/seq052_len120_s10_isi-1p0_0p0_16p0.json","10.69","true","2cyrm1hqd12","","null","<span style=""font-size: 40px"">+</span>","null","","","","","","","","","",""
"","","","","","audio-button-response","115","196162","0.0-10.0-2.42","https://mcdermottlab.mit.edu/mturk_stimuli/bjmedina/global-music-2025-n_80/sequences/isi_16/len120/seq052_len120_s10_isi-1p0_0p0_16p0.json","10.69","true","2cyrm1hqd12","","2269","https://mcdermottlab.mit.edu/mturk_stimuli/bjmedina/global-music-2025-n_80/mem_stim_48.wav","3","main","","","true","mem_stim_48.wav","false","16","","0","miss"
"","","","","","html-keyboard-response","116","196224","0.0-10.0-1.43","https://mcdermottlab.mit.edu/mturk_stimuli/bjmedina/global-music-2025-n_80/sequences/isi_16/len120/seq052_len120_s10_isi-1p0_0p0_16p0.json","10.69","true","2cyrm1hqd12","","null","<span style=""font-size: 40px"">+</span>","null","","","","","","","","","",""
"","","","","","audio-button-response","117","198788","0.0-10.0-2.43","https://mcdermottlab.mit.edu/mturk_stimuli/bjmedina/global-music-2025-n_80/sequences/isi_16/len120/seq052_len120_s10_isi-1p0_0p0_16p0.json","10.69","true","2cyrm1hqd12","","2389","https://mcdermottlab.mit.edu/mturk_stimuli/bjmedina/global-music-2025-n_80/mem_stim_34.wav","1","main","","","false","mem_stim_34.wav","false","-1","","0","false_alarm"
"","","","","","html-keyboard-response","118","198842","0.0-10.0-1.44","https://mcdermottlab.mit.edu/mturk_stimuli/bjmedina/global-music-2025-n_80/sequences/isi_16/len120/seq052_len120_s10_isi-1p0_0p0_16p0.json","10.69","true","2cyrm1hqd12","","null","<span style=""font-size: 40px"">+</span>","null","","","","","","","","","",""
"","","","","","audio-button-response","119","201211","0.0-10.0-2.44","https://mcdermottlab.mit.edu/mturk_stimuli/bjmedina/global-music-2025-n_80/sequences/isi_16/len120/seq052_len120_s10_isi-1p0_0p0_16p0.json","10.69","true","2cyrm1hqd12","","2371","https://mcdermottlab.mit.edu/mturk_stimuli/bjmedina/global-music-2025-n_80/mem_stim_33.wav","2","main","","","true","mem_stim_33.wav","false","16","","0","miss"
"","","","","","html-keyboard-response","120","201270","0.0-10.0-1.45","https://mcdermottlab.mit.edu/mturk_stimuli/bjmedina/global-music-2025-n_80/sequences/isi_16/len120/seq052_len120_s10_isi-1p0_0p0_16p0.json","10.69","true","2cyrm1hqd12","","null","<span style=""font-size: 40px"">+</span>","null","","","","","","","","","",""
"","","","","","audio-button-response","121","203974","0.0-10.0-2.45","https://mcdermottlab.mit.edu/mturk_stimuli/bjmedina/global-music-2025-n_80/sequences/isi_16/len120/seq052_len120_s10_isi-1p0_0p0_16p0.json","10.69","true","2cyrm1hqd12","","2701","https://mcdermottlab.mit.edu/mturk_stimuli/bjmedina/global-music-2025-n_80/mem_stim_40.wav","1","main","","","true","mem_stim_40.wav","false","16","","1","hit"
"","","","","","html-keyboard-response","122","204036","0.0-10.0-1.46","https://mcdermottlab.mit.edu/mturk_stimuli/bjmedina/global-music-2025-n_80/sequences/isi_16/len120/seq052_len120_s10_isi-1p0_0p0_16p0.json","10.69","true","2cyrm1hqd12","","null","<span style=""font-size: 40px"">+</span>","null","","","","","","","","","",""
"","","","","","audio-button-response","123","206680","0.0-10.0-2.46","https://mcdermottlab.mit.edu/mturk_stimuli/bjmedina/global-music-2025-n_80/sequences/isi_16/len120/seq052_len120_s10_isi-1p0_0p0_16p0.json","10.69","true","2cyrm1hqd12","","2389","https://mcdermottlab.mit.edu/mturk_stimuli/bjmedina/global-music-2025-n_80/mem_stim_53.wav","0","main","","","false","mem_stim_53.wav","false","-1","","1","correct_rejection"
"","","","","","html-keyboard-response","124","206744","0.0-10.0-1.47","https://mcdermottlab.mit.edu/mturk_stimuli/bjmedina/global-music-2025-n_80/sequences/isi_16/len120/seq052_len120_s10_isi-1p0_0p0_16p0.json","10.69","true","2cyrm1hqd12","","null","<span style=""font-size: 40px"">+</span>","null","","","","","","","","","",""
"","","","","","audio-button-response","125","209460","0.0-10.0-2.47","https://mcdermottlab.mit.edu/mturk_stimuli/bjmedina/global-music-2025-n_80/sequences/isi_16/len120/seq052_len120_s10_isi-1p0_0p0_16p0.json","10.69","true","2cyrm1hqd12","","2541","https://mcdermottlab.mit.edu/mturk_stimuli/bjmedina/global-music-2025-n_80/mem_stim_38.wav","1","main","","","false","mem_stim_38.wav","false","-1","","0","false_alarm"
"","","","","","html-keyboard-response","126","209519","0.0-10.0-1.48","https://mcdermottlab.mit.edu/mturk_stimuli/bjmedina/global-music-2025-n_80/sequences/isi_16/len120/seq052_len120_s10_isi-1p0_0p0_16p0.json","10.69","true","2cyrm1hqd12","","null","<span style=""font-size: 40px"">+</span>","null","","","","","","","","","",""
"","","","","","audio-button-response","127","211861","0.0-10.0-2.48","https://mcdermottlab.mit.edu/mturk_stimuli/bjmedina/global-music-2025-n_80/sequences/isi_16/len120/seq052_len120_s10_isi-1p0_0p0_16p0.json","10.69","true","2cyrm1hqd12","","2341","https://mcdermottlab.mit.edu/mturk_stimuli/bjmedina/global-music-2025-n_80/mem_stim_68.wav","3","main","","","true","mem_stim_68.wav","false","16","","0","miss"
"","","","","","html-keyboard-response","128","211928","0.0-10.0-1.49","https://mcdermottlab.mit.edu/mturk_stimuli/bjmedina/global-music-2025-n_80/sequences/isi_16/len120/seq052_len120_s10_isi-1p0_0p0_16p0.json","10.69","true","2cyrm1hqd12","","null","<span style=""font-size: 40px"">+</span>","null","","","","","","","","","",""
"","","","","","audio-button-response","129","214460","0.0-10.0-2.49","https://mcdermottlab.mit.edu/mturk_stimuli/bjmedina/global-music-2025-n_80/sequences/isi_16/len120/seq052_len120_s10_isi-1p0_0p0_16p0.json","10.69","true","2cyrm1hqd12","","2360","https://mcdermottlab.mit.edu/mturk_stimuli/bjmedina/global-music-2025-n_80/mem_stim_73.wav","0","main","","","false","mem_stim_73.wav","false","-1","","1","correct_rejection"
"","","","","","html-keyboard-response","130","214515","0.0-10.0-1.50","https://mcdermottlab.mit.edu/mturk_stimuli/bjmedina/global-music-2025-n_80/sequences/isi_16/len120/seq052_len120_s10_isi-1p0_0p0_16p0.json","10.69","true","2cyrm1hqd12","","null","<span style=""font-size: 40px"">+</span>","null","","","","","","","","","",""
"","","","","","audio-button-response","131","216710","0.0-10.0-2.50","https://mcdermottlab.mit.edu/mturk_stimuli/bjmedina/global-music-2025-n_80/sequences/isi_16/len120/seq052_len120_s10_isi-1p0_0p0_16p0.json","10.69","true","2cyrm1hqd12","","2200","https://mcdermottlab.mit.edu/mturk_stimuli/bjmedina/global-music-2025-n_80/mem_stim_73.wav","3","main","","","true","mem_stim_73.wav","true","0","","0","miss"
"","","","","","html-keyboard-response","132","216776","0.0-10.0-1.51","https://mcdermottlab.mit.edu/mturk_stimuli/bjmedina/global-music-2025-n_80/sequences/isi_16/len120/seq052_len120_s10_isi-1p0_0p0_16p0.json","10.69","true","2cyrm1hqd12","","null","<span style=""font-size: 40px"">+</span>","null","","","","","","","","","",""
"","","","","","audio-button-response","133","219338","0.0-10.0-2.51","https://mcdermottlab.mit.edu/mturk_stimuli/bjmedina/global-music-2025-n_80/sequences/isi_16/len120/seq052_len120_s10_isi-1p0_0p0_16p0.json","10.69","true","2cyrm1hqd12","","2392","https://mcdermottlab.mit.edu/mturk_stimuli/bjmedina/global-music-2025-n_80/mem_stim_72.wav","1","main","","","false","mem_stim_72.wav","false","-1","","0","false_alarm"
"","","","","","html-keyboard-response","134","219405","0.0-10.0-1.52","https://mcdermottlab.mit.edu/mturk_stimuli/bjmedina/global-music-2025-n_80/sequences/isi_16/len120/seq052_len120_s10_isi-1p0_0p0_16p0.json","10.69","true","2cyrm1hqd12","","null","<span style=""font-size: 40px"">+</span>","null","","","","","","","","","",""
"","","","","","audio-button-response","135","221925","0.0-10.0-2.52","https://mcdermottlab.mit.edu/mturk_stimuli/bjmedina/global-music-2025-n_80/sequences/isi_16/len120/seq052_len120_s10_isi-1p0_0p0_16p0.json","10.69","true","2cyrm1hqd12","","2339","https://mcdermottlab.mit.edu/mturk_stimuli/bjmedina/global-music-2025-n_80/mem_stim_15.wav","1","main","","","false","mem_stim_15.wav","false","-1","","0","false_alarm"
"","","","","","html-keyboard-response","136","221980","0.0-10.0-1.53","https://mcdermottlab.mit.edu/mturk_stimuli/bjmedina/global-music-2025-n_80/sequences/isi_16/len120/seq052_len120_s10_isi-1p0_0p0_16p0.json","10.69","true","2cyrm1hqd12","","null","<span style=""font-size: 40px"">+</span>","null","","","","","","","","","",""
"","","","","","audio-button-response","137","224814","0.0-10.0-2.53","https://mcdermottlab.mit.edu/mturk_stimuli/bjmedina/global-music-2025-n_80/sequences/isi_16/len120/seq052_len120_s10_isi-1p0_0p0_16p0.json","10.69","true","2cyrm1hqd12","","2611","https://mcdermottlab.mit.edu/mturk_stimuli/bjmedina/global-music-2025-n_80/mem_stim_49.wav","1","main","","","false","mem_stim_49.wav","false","-1","","0","false_alarm"
"","","","","","html-keyboard-response","138","224883","0.0-10.0-1.54","https://mcdermottlab.mit.edu/mturk_stimuli/bjmedina/global-music-2025-n_80/sequences/isi_16/len120/seq052_len120_s10_isi-1p0_0p0_16p0.json","10.69","true","2cyrm1hqd12","","null","<span style=""font-size: 40px"">+</span>","null","","","","","","","","","",""
"","","","","","audio-button-response","139","226951","0.0-10.0-2.54","https://mcdermottlab.mit.edu/mturk_stimuli/bjmedina/global-music-2025-n_80/sequences/isi_16/len120/seq052_len120_s10_isi-1p0_0p0_16p0.json","10.69","true","2cyrm1hqd12","","2069","https://mcdermottlab.mit.edu/mturk_stimuli/bjmedina/global-music-2025-n_80/mem_stim_5.wav","3","main","","","true","mem_stim_5.wav","false","16","","0","miss"
"","","","","","html-keyboard-response","140","227013","0.0-10.0-1.55","https://mcdermottlab.mit.edu/mturk_stimuli/bjmedina/global-music-2025-n_80/sequences/isi_16/len120/seq052_len120_s10_isi-1p0_0p0_16p0.json","10.69","true","2cyrm1hqd12","","null","<span style=""font-size: 40px"">+</span>","null","","","","","","","","","",""
"","","","","","audio-button-response","141","229341","0.0-10.0-2.55","https://mcdermottlab.mit.edu/mturk_stimuli/bjmedina/global-music-2025-n_80/sequences/isi_16/len120/seq052_len120_s10_isi-1p0_0p0_16p0.json","10.69","true","2cyrm1hqd12","","2152","https://mcdermottlab.mit.edu/mturk_stimuli/bjmedina/global-music-2025-n_80/mem_stim_6.wav","2","main","","","false","mem_stim_6.wav","false","-1","","1","correct_rejection"
"","","","","","html-keyboard-response","142","229406","0.0-10.0-1.56","https://mcdermottlab.mit.edu/mturk_stimuli/bjmedina/global-music-2025-n_80/sequences/isi_16/len120/seq052_len120_s10_isi-1p0_0p0_16p0.json","10.69","true","2cyrm1hqd12","","null","<span style=""font-size: 40px"">+</span>","null","","","","","","","","","",""
"","","","","","audio-button-response","143","231624","0.0-10.0-2.56","https://mcdermottlab.mit.edu/mturk_stimuli/bjmedina/global-music-2025-n_80/sequences/isi_16/len120/seq052_len120_s10_isi-1p0_0p0_16p0.json","10.69","true","2cyrm1hqd12","","2221","https://mcdermottlab.mit.edu/mturk_stimuli/bjmedina/global-music-2025-n_80/mem_stim_70.wav","1","main","","","true","mem_stim_70.wav","false","16","","1","hit"
"","","","","","html-keyboard-response","144","231680","0.0-10.0-1.57","https://mcdermottlab.mit.edu/mturk_stimuli/bjmedina/global-music-2025-n_80/sequences/isi_16/len120/seq052_len120_s10_isi-1p0_0p0_16p0.json","10.69","true","2cyrm1hqd12","","null","<span style=""font-size: 40px"">+</span>","null","","","","","","","","","",""
"","","","","","audio-button-response","145","234262","0.0-10.0-2.57","https://mcdermottlab.mit.edu/mturk_stimuli/bjmedina/global-music-2025-n_80/sequences/isi_16/len120/seq052_len120_s10_isi-1p0_0p0_16p0.json","10.69","true","2cyrm1hqd12","","2392","https://mcdermottlab.mit.edu/mturk_stimuli/bjmedina/global-music-2025-n_80/mem_stim_79.wav","1","main","","","false","mem_stim_79.wav","false","-1","","0","false_alarm"
"","","","","","html-keyboard-response","146","234318","0.0-10.0-1.58","https://mcdermottlab.mit.edu/mturk_stimuli/bjmedina/global-music-2025-n_80/sequences/isi_16/len120/seq052_len120_s10_isi-1p0_0p0_16p0.json","10.69","true","2cyrm1hqd12","","null","<span style=""font-size: 40px"">+</span>","null","","","","","","","","","",""
"","","","","","audio-button-response","147","236556","0.0-10.0-2.58","https://mcdermottlab.mit.edu/mturk_stimuli/bjmedina/global-music-2025-n_80/sequences/isi_16/len120/seq052_len120_s10_isi-1p0_0p0_16p0.json","10.69","true","2cyrm1hqd12","","2229","https://mcdermottlab.mit.edu/mturk_stimuli/bjmedina/global-music-2025-n_80/mem_stim_79.wav","3","main","","","true","mem_stim_79.wav","true","0","","0","miss"
"","","","","","html-keyboard-response","148","236614","0.0-10.0-1.59","https://mcdermottlab.mit.edu/mturk_stimuli/bjmedina/global-music-2025-n_80/sequences/isi_16/len120/seq052_len120_s10_isi-1p0_0p0_16p0.json","10.69","true","2cyrm1hqd12","","null","<span style=""font-size: 40px"">+</span>","null","","","","","","","","","",""
"","","","","","audio-button-response","149","239173","0.0-10.0-2.59","https://mcdermottlab.mit.edu/mturk_stimuli/bjmedina/global-music-2025-n_80/sequences/isi_16/len120/seq052_len120_s10_isi-1p0_0p0_16p0.json","10.69","true","2cyrm1hqd12","","2341","https://mcdermottlab.mit.edu/mturk_stimuli/bjmedina/global-music-2025-n_80/mem_stim_11.wav","0","main","","","false","mem_stim_11.wav","false","-1","","1","correct_rejection"
"","","","","","html-keyboard-response","150","239229","0.0-10.0-1.60","https://mcdermottlab.mit.edu/mturk_stimuli/bjmedina/global-music-2025-n_80/sequences/isi_16/len120/seq052_len120_s10_isi-1p0_0p0_16p0.json","10.69","true","2cyrm1hqd12","","null","<span style=""font-size: 40px"">+</span>","null","","","","","","","","","",""
"","","","","","audio-button-response","151","242240","0.0-10.0-2.60","https://mcdermottlab.mit.edu/mturk_stimuli/bjmedina/global-music-2025-n_80/sequences/isi_16/len120/seq052_len120_s10_isi-1p0_0p0_16p0.json","10.69","true","2cyrm1hqd12","","3011","https://mcdermottlab.mit.edu/mturk_stimuli/bjmedina/global-music-2025-n_80/mem_stim_34.wav","1","main","","","true","mem_stim_34.wav","false","16","","1","hit"
"","","","","","html-keyboard-response","152","242295","0.0-10.0-1.61","https://mcdermottlab.mit.edu/mturk_stimuli/bjmedina/global-music-2025-n_80/sequences/isi_16/len120/seq052_len120_s10_isi-1p0_0p0_16p0.json","10.69","true","2cyrm1hqd12","","null","<span style=""font-size: 40px"">+</span>","null","","","","","","","","","",""
"","","","","","audio-button-response","153","244730","0.0-10.0-2.61","https://mcdermottlab.mit.edu/mturk_stimuli/bjmedina/global-music-2025-n_80/sequences/isi_16/len120/seq052_len120_s10_isi-1p0_0p0_16p0.json","10.69","true","2cyrm1hqd12","","2251","https://mcdermottlab.mit.edu/mturk_stimuli/bjmedina/global-music-2025-n_80/mem_stim_10.wav","0","main","","","false","mem_stim_10.wav","false","-1","","1","correct_rejection"
"","","","","","html-keyboard-response","154","244786","0.0-10.0-1.62","https://mcdermottlab.mit.edu/mturk_stimuli/bjmedina/global-music-2025-n_80/sequences/isi_16/len120/seq052_len120_s10_isi-1p0_0p0_16p0.json","10.69","true","2cyrm1hqd12","","null","<span style=""font-size: 40px"">+</span>","null","","","","","","","","","",""
"","","","","","audio-button-response","155","247386","0.0-10.0-2.62","https://mcdermottlab.mit.edu/mturk_stimuli/bjmedina/global-music-2025-n_80/sequences/isi_16/len120/seq052_len120_s10_isi-1p0_0p0_16p0.json","10.69","true","2cyrm1hqd12","","2371","https://mcdermottlab.mit.edu/mturk_stimuli/bjmedina/global-music-2025-n_80/mem_stim_71.wav","1","main","","","false","mem_stim_71.wav","false","-1","","0","false_alarm"
"","","","","","html-keyboard-response","156","247442","0.0-10.0-1.63","https://mcdermottlab.mit.edu/mturk_stimuli/bjmedina/global-music-2025-n_80/sequences/isi_16/len120/seq052_len120_s10_isi-1p0_0p0_16p0.json","10.69","true","2cyrm1hqd12","","null","<span style=""font-size: 40px"">+</span>","null","","","","","","","","","",""
"","","","","","audio-button-response","157","249579","0.0-10.0-2.63","https://mcdermottlab.mit.edu/mturk_stimuli/bjmedina/global-music-2025-n_80/sequences/isi_16/len120/seq052_len120_s10_isi-1p0_0p0_16p0.json","10.69","true","2cyrm1hqd12","","2141","https://mcdermottlab.mit.edu/mturk_stimuli/bjmedina/global-music-2025-n_80/mem_stim_53.wav","3","main","","","true","mem_stim_53.wav","false","16","","0","miss"
"","","","","","html-keyboard-response","158","249646","0.0-10.0-1.64","https://mcdermottlab.mit.edu/mturk_stimuli/bjmedina/global-music-2025-n_80/sequences/isi_16/len120/seq052_len120_s10_isi-1p0_0p0_16p0.json","10.69","true","2cyrm1hqd12","","null","<span style=""font-size: 40px"">+</span>","null","","","","","","","","","",""
"","","","","","audio-button-response","159","252633","0.0-10.0-2.64","https://mcdermottlab.mit.edu/mturk_stimuli/bjmedina/global-music-2025-n_80/sequences/isi_16/len120/seq052_len120_s10_isi-1p0_0p0_16p0.json","10.69","true","2cyrm1hqd12","","2768","https://mcdermottlab.mit.edu/mturk_stimuli/bjmedina/global-music-2025-n_80/mem_stim_3.wav","1","main","","","false","mem_stim_3.wav","false","-1","","0","false_alarm"
"","","","","","html-keyboard-response","160","252689","0.0-10.0-1.65","https://mcdermottlab.mit.edu/mturk_stimuli/bjmedina/global-music-2025-n_80/sequences/isi_16/len120/seq052_len120_s10_isi-1p0_0p0_16p0.json","10.69","true","2cyrm1hqd12","","null","<span style=""font-size: 40px"">+</span>","null","","","","","","","","","",""
"","","","","","audio-button-response","161","255171","0.0-10.0-2.65","https://mcdermottlab.mit.edu/mturk_stimuli/bjmedina/global-music-2025-n_80/sequences/isi_16/len120/seq052_len120_s10_isi-1p0_0p0_16p0.json","10.69","true","2cyrm1hqd12","","2301","https://mcdermottlab.mit.edu/mturk_stimuli/bjmedina/global-music-2025-n_80/mem_stim_0.wav","0","main","","","false","mem_stim_0.wav","false","-1","","1","correct_rejection"
"","","","","","html-keyboard-response","162","255228","0.0-10.0-1.66","https://mcdermottlab.mit.edu/mturk_stimuli/bjmedina/global-music-2025-n_80/sequences/isi_16/len120/seq052_len120_s10_isi-1p0_0p0_16p0.json","10.69","true","2cyrm1hqd12","","null","<span style=""font-size: 40px"">+</span>","null","","","","","","","","","",""
"","","","","","audio-button-response","163","257888","0.0-10.0-2.66","https://mcdermottlab.mit.edu/mturk_stimuli/bjmedina/global-music-2025-n_80/sequences/isi_16/len120/seq052_len120_s10_isi-1p0_0p0_16p0.json","10.69","true","2cyrm1hqd12","","2491","https://mcdermottlab.mit.edu/mturk_stimuli/bjmedina/global-music-2025-n_80/mem_stim_9.wav","1","main","","","false","mem_stim_9.wav","false","-1","","0","false_alarm"
"","","","","","html-keyboard-response","164","257944","0.0-10.0-1.67","https://mcdermottlab.mit.edu/mturk_stimuli/bjmedina/global-music-2025-n_80/sequences/isi_16/len120/seq052_len120_s10_isi-1p0_0p0_16p0.json","10.69","true","2cyrm1hqd12","","null","<span style=""font-size: 40px"">+</span>","null","","","","","","","","","",""
"","","","","","audio-button-response","165","260337","0.0-10.0-2.67","https://mcdermottlab.mit.edu/mturk_stimuli/bjmedina/global-music-2025-n_80/sequences/isi_16/len120/seq052_len120_s10_isi-1p0_0p0_16p0.json","10.69","true","2cyrm1hqd12","","2160","https://mcdermottlab.mit.edu/mturk_stimuli/bjmedina/global-music-2025-n_80/mem_stim_51.wav","3","main","","","false","mem_stim_51.wav","false","-1","","1","correct_rejection"
"","","","","","html-keyboard-response","166","260394","0.0-10.0-1.68","https://mcdermottlab.mit.edu/mturk_stimuli/bjmedina/global-music-2025-n_80/sequences/isi_16/len120/seq052_len120_s10_isi-1p0_0p0_16p0.json","10.69","true","2cyrm1hqd12","","null","<span style=""font-size: 40px"">+</span>","null","","","","","","","","","",""
"","","","","","audio-button-response","167","262701","0.0-10.0-2.68","https://mcdermottlab.mit.edu/mturk_stimuli/bjmedina/global-music-2025-n_80/sequences/isi_16/len120/seq052_len120_s10_isi-1p0_0p0_16p0.json","10.69","true","2cyrm1hqd12","","2131","https://mcdermottlab.mit.edu/mturk_stimuli/bjmedina/global-music-2025-n_80/mem_stim_20.wav","2","main","","","false","mem_stim_20.wav","false","-1","","1","correct_rejection"
"","","","","","html-keyboard-response","168","262765","0.0-10.0-1.69","https://mcdermottlab.mit.edu/mturk_stimuli/bjmedina/global-music-2025-n_80/sequences/isi_16/len120/seq052_len120_s10_isi-1p0_0p0_16p0.json","10.69","true","2cyrm1hqd12","","null","<span style=""font-size: 40px"">+</span>","null","","","","","","","","","",""
"","","","","","audio-button-response","169","265925","0.0-10.0-2.69","https://mcdermottlab.mit.edu/mturk_stimuli/bjmedina/global-music-2025-n_80/sequences/isi_16/len120/seq052_len120_s10_isi-1p0_0p0_16p0.json","10.69","true","2cyrm1hqd12","","2931","https://mcdermottlab.mit.edu/mturk_stimuli/bjmedina/global-music-2025-n_80/mem_stim_23.wav","1","main","","","false","mem_stim_23.wav","false","-1","","0","false_alarm"
"","","","","","html-keyboard-response","170","265994","0.0-10.0-1.70","https://mcdermottlab.mit.edu/mturk_stimuli/bjmedina/global-music-2025-n_80/sequences/isi_16/len120/seq052_len120_s10_isi-1p0_0p0_16p0.json","10.69","true","2cyrm1hqd12","","null","<span style=""font-size: 40px"">+</span>","null","","","","","","","","","",""
"","","","","","audio-button-response","171","268944","0.0-10.0-2.70","https://mcdermottlab.mit.edu/mturk_stimuli/bjmedina/global-music-2025-n_80/sequences/isi_16/len120/seq052_len120_s10_isi-1p0_0p0_16p0.json","10.69","true","2cyrm1hqd12","","2731","https://mcdermottlab.mit.edu/mturk_stimuli/bjmedina/global-music-2025-n_80/mem_stim_61.wav","0","main","","","false","mem_stim_61.wav","false","-1","","1","correct_rejection"
"","","","","","html-keyboard-response","172","269002","0.0-10.0-1.71","https://mcdermottlab.mit.edu/mturk_stimuli/bjmedina/global-music-2025-n_80/sequences/isi_16/len120/seq052_len120_s10_isi-1p0_0p0_16p0.json","10.69","true","2cyrm1hqd12","","null","<span style=""font-size: 40px"">+</span>","null","","","","","","","","","",""
"","","","","","audio-button-response","173","271088","0.0-10.0-2.71","https://mcdermottlab.mit.edu/mturk_stimuli/bjmedina/global-music-2025-n_80/sequences/isi_16/len120/seq052_len120_s10_isi-1p0_0p0_16p0.json","10.69","true","2cyrm1hqd12","","2091","https://mcdermottlab.mit.edu/mturk_stimuli/bjmedina/global-music-2025-n_80/mem_stim_61.wav","3","main","","","true","mem_stim_61.wav","true","0","","0","miss"
"","","","","","html-keyboard-response","174","271153","0.0-10.0-1.72","https://mcdermottlab.mit.edu/mturk_stimuli/bjmedina/global-music-2025-n_80/sequences/isi_16/len120/seq052_len120_s10_isi-1p0_0p0_16p0.json","10.69","true","2cyrm1hqd12","","null","<span style=""font-size: 40px"">+</span>","null","","","","","","","","","",""
"","","","","","audio-button-response","175","273338","0.0-10.0-2.72","https://mcdermottlab.mit.edu/mturk_stimuli/bjmedina/global-music-2025-n_80/sequences/isi_16/len120/seq052_len120_s10_isi-1p0_0p0_16p0.json","10.69","true","2cyrm1hqd12","","2192","https://mcdermottlab.mit.edu/mturk_stimuli/bjmedina/global-music-2025-n_80/mem_stim_6.wav","2","main","","","true","mem_stim_6.wav","false","16","","0","miss"
"","","","","","html-keyboard-response","176","273404","0.0-10.0-1.73","https://mcdermottlab.mit.edu/mturk_stimuli/bjmedina/global-music-2025-n_80/sequences/isi_16/len120/seq052_len120_s10_isi-1p0_0p0_16p0.json","10.69","true","2cyrm1hqd12","","null","<span style=""font-size: 40px"">+</span>","null","","","","","","","","","",""
"","","","","","audio-button-response","177","275933","0.0-10.0-2.73","https://mcdermottlab.mit.edu/mturk_stimuli/bjmedina/global-music-2025-n_80/sequences/isi_16/len120/seq052_len120_s10_isi-1p0_0p0_16p0.json","10.69","true","2cyrm1hqd12","","2309","https://mcdermottlab.mit.edu/mturk_stimuli/bjmedina/global-music-2025-n_80/mem_stim_43.wav","1","main","","","false","mem_stim_43.wav","false","-1","","0","false_alarm"
"","","","","","html-keyboard-response","178","275993","0.0-10.0-1.74","https://mcdermottlab.mit.edu/mturk_stimuli/bjmedina/global-music-2025-n_80/sequences/isi_16/len120/seq052_len120_s10_isi-1p0_0p0_16p0.json","10.69","true","2cyrm1hqd12","","null","<span style=""font-size: 40px"">+</span>","null","","","","","","","","","",""
"","","","","","audio-button-response","179","278543","0.0-10.0-2.74","https://mcdermottlab.mit.edu/mturk_stimuli/bjmedina/global-music-2025-n_80/sequences/isi_16/len120/seq052_len120_s10_isi-1p0_0p0_16p0.json","10.69","true","2cyrm1hqd12","","2320","https://mcdermottlab.mit.edu/mturk_stimuli/bjmedina/global-music-2025-n_80/mem_stim_75.wav","0","main","","","false","mem_stim_75.wav","false","-1","","1","correct_rejection"
"","","","","","html-keyboard-response","180","278606","0.0-10.0-1.75","https://mcdermottlab.mit.edu/mturk_stimuli/bjmedina/global-music-2025-n_80/sequences/isi_16/len120/seq052_len120_s10_isi-1p0_0p0_16p0.json","10.69","true","2cyrm1hqd12","","null","<span style=""font-size: 40px"">+</span>","null","","","","","","","","","",""
"","","","","","audio-button-response","181","281264","0.0-10.0-2.75","https://mcdermottlab.mit.edu/mturk_stimuli/bjmedina/global-music-2025-n_80/sequences/isi_16/len120/seq052_len120_s10_isi-1p0_0p0_16p0.json","10.69","true","2cyrm1hqd12","","2480","https://mcdermottlab.mit.edu/mturk_stimuli/bjmedina/global-music-2025-n_80/mem_stim_62.wav","2","main","","","false","mem_stim_62.wav","false","-1","","1","correct_rejection"
"","","","","","html-keyboard-response","182","281321","0.0-10.0-1.76","https://mcdermottlab.mit.edu/mturk_stimuli/bjmedina/global-music-2025-n_80/sequences/isi_16/len120/seq052_len120_s10_isi-1p0_0p0_16p0.json","10.69","true","2cyrm1hqd12","","null","<span style=""font-size: 40px"">+</span>","null","","","","","","","","","",""
"","","","","","audio-button-response","183","283607","0.0-10.0-2.76","https://mcdermottlab.mit.edu/mturk_stimuli/bjmedina/global-music-2025-n_80/sequences/isi_16/len120/seq052_len120_s10_isi-1p0_0p0_16p0.json","10.69","true","2cyrm1hqd12","","2280","https://mcdermottlab.mit.edu/mturk_stimuli/bjmedina/global-music-2025-n_80/mem_stim_62.wav","3","main","","","true","mem_stim_62.wav","true","0","","0","miss"
"","","","","","html-keyboard-response","184","283669","0.0-10.0-1.77","https://mcdermottlab.mit.edu/mturk_stimuli/bjmedina/global-music-2025-n_80/sequences/isi_16/len120/seq052_len120_s10_isi-1p0_0p0_16p0.json","10.69","true","2cyrm1hqd12","","null","<span style=""font-size: 40px"">+</span>","null","","","","","","","","","",""
"","","","","","audio-button-response","185","286345","0.0-10.0-2.77","https://mcdermottlab.mit.edu/mturk_stimuli/bjmedina/global-music-2025-n_80/sequences/isi_16/len120/seq052_len120_s10_isi-1p0_0p0_16p0.json","10.69","true","2cyrm1hqd12","","2312","https://mcdermottlab.mit.edu/mturk_stimuli/bjmedina/global-music-2025-n_80/mem_stim_55.wav","1","main","","","false","mem_stim_55.wav","false","-1","","0","false_alarm"
"","","","","","html-keyboard-response","186","286408","0.0-10.0-1.78","https://mcdermottlab.mit.edu/mturk_stimuli/bjmedina/global-music-2025-n_80/sequences/isi_16/len120/seq052_len120_s10_isi-1p0_0p0_16p0.json","10.69","true","2cyrm1hqd12","","null","<span style=""font-size: 40px"">+</span>","null","","","","","","","","","",""
"","","","","","audio-button-response","187","288784","0.0-10.0-2.78","https://mcdermottlab.mit.edu/mturk_stimuli/bjmedina/global-music-2025-n_80/sequences/isi_16/len120/seq052_len120_s10_isi-1p0_0p0_16p0.json","10.69","true","2cyrm1hqd12","","2371","https://mcdermottlab.mit.edu/mturk_stimuli/bjmedina/global-music-2025-n_80/mem_stim_10.wav","0","main","","","true","mem_stim_10.wav","false","16","","0","miss"
"","","","","","html-keyboard-response","188","288841","0.0-10.0-1.79","https://mcdermottlab.mit.edu/mturk_stimuli/bjmedina/global-music-2025-n_80/sequences/isi_16/len120/seq052_len120_s10_isi-1p0_0p0_16p0.json","10.69","true","2cyrm1hqd12","","null","<span style=""font-size: 40px"">+</span>","null","","","","","","","","","",""
"","","","","","audio-button-response","189","291370","0.0-10.0-2.79","https://mcdermottlab.mit.edu/mturk_stimuli/bjmedina/global-music-2025-n_80/sequences/isi_16/len120/seq052_len120_s10_isi-1p0_0p0_16p0.json","10.69","true","2cyrm1hqd12","","2261","https://mcdermottlab.mit.edu/mturk_stimuli/bjmedina/global-music-2025-n_80/mem_stim_36.wav","2","main","","","false","mem_stim_36.wav","false","-1","","1","correct_rejection"
"","","","","","html-keyboard-response","190","291427","0.0-10.0-1.80","https://mcdermottlab.mit.edu/mturk_stimuli/bjmedina/global-music-2025-n_80/sequences/isi_16/len120/seq052_len120_s10_isi-1p0_0p0_16p0.json","10.69","true","2cyrm1hqd12","","null","<span style=""font-size: 40px"">+</span>","null","","","","","","","","","",""
"","","","","","audio-button-response","191","294004","0.0-10.0-2.80","https://mcdermottlab.mit.edu/mturk_stimuli/bjmedina/global-music-2025-n_80/sequences/isi_16/len120/seq052_len120_s10_isi-1p0_0p0_16p0.json","10.69","true","2cyrm1hqd12","","2339","https://mcdermottlab.mit.edu/mturk_stimuli/bjmedina/global-music-2025-n_80/mem_stim_22.wav","0","main","","","false","mem_stim_22.wav","false","-1","","1","correct_rejection"
"","","","","","html-keyboard-response","192","294062","0.0-10.0-1.81","https://mcdermottlab.mit.edu/mturk_stimuli/bjmedina/global-music-2025-n_80/sequences/isi_16/len120/seq052_len120_s10_isi-1p0_0p0_16p0.json","10.69","true","2cyrm1hqd12","","null","<span style=""font-size: 40px"">+</span>","null","","","","","","","","","",""
"","","","","","audio-button-response","193","296406","0.0-10.0-2.81","https://mcdermottlab.mit.edu/mturk_stimuli/bjmedina/global-music-2025-n_80/sequences/isi_16/len120/seq052_len120_s10_isi-1p0_0p0_16p0.json","10.69","true","2cyrm1hqd12","","2339","https://mcdermottlab.mit.edu/mturk_stimuli/bjmedina/global-music-2025-n_80/mem_stim_3.wav","1","main","","","true","mem_stim_3.wav","false","16","","1","hit"
"","","","","","html-keyboard-response","194","296476","0.0-10.0-1.82","https://mcdermottlab.mit.edu/mturk_stimuli/bjmedina/global-music-2025-n_80/sequences/isi_16/len120/seq052_len120_s10_isi-1p0_0p0_16p0.json","10.69","true","2cyrm1hqd12","","null","<span style=""font-size: 40px"">+</span>","null","","","","","","","","","",""
"","","","","","audio-button-response","195","298999","0.0-10.0-2.82","https://mcdermottlab.mit.edu/mturk_stimuli/bjmedina/global-music-2025-n_80/sequences/isi_16/len120/seq052_len120_s10_isi-1p0_0p0_16p0.json","10.69","true","2cyrm1hqd12","","2349","https://mcdermottlab.mit.edu/mturk_stimuli/bjmedina/global-music-2025-n_80/mem_stim_21.wav","1","main","","","false","mem_stim_21.wav","false","-1","","0","false_alarm"
"","","","","","html-keyboard-response","196","299058","0.0-10.0-1.83","https://mcdermottlab.mit.edu/mturk_stimuli/bjmedina/global-music-2025-n_80/sequences/isi_16/len120/seq052_len120_s10_isi-1p0_0p0_16p0.json","10.69","true","2cyrm1hqd12","","null","<span style=""font-size: 40px"">+</span>","null","","","","","","","","","",""
"","","","","","audio-button-response","197","301379","0.0-10.0-2.83","https://mcdermottlab.mit.edu/mturk_stimuli/bjmedina/global-music-2025-n_80/sequences/isi_16/len120/seq052_len120_s10_isi-1p0_0p0_16p0.json","10.69","true","2cyrm1hqd12","","2141","https://mcdermottlab.mit.edu/mturk_stimuli/bjmedina/global-music-2025-n_80/mem_stim_45.wav","0","main","","","false","mem_stim_45.wav","false","-1","","1","correct_rejection"
"","","","","","html-keyboard-response","198","301451","0.0-10.0-1.84","https://mcdermottlab.mit.edu/mturk_stimuli/bjmedina/global-music-2025-n_80/sequences/isi_16/len120/seq052_len120_s10_isi-1p0_0p0_16p0.json","10.69","true","2cyrm1hqd12","","null","<span style=""font-size: 40px"">+</span>","null","","","","","","","","","",""
"","","","","","audio-button-response","199","303795","0.0-10.0-2.84","https://mcdermottlab.mit.edu/mturk_stimuli/bjmedina/global-music-2025-n_80/sequences/isi_16/len120/seq052_len120_s10_isi-1p0_0p0_16p0.json","10.69","true","2cyrm1hqd12","","2339","https://mcdermottlab.mit.edu/mturk_stimuli/bjmedina/global-music-2025-n_80/mem_stim_51.wav","3","main","","","true","mem_stim_51.wav","false","16","","0","miss"
"","","","","","html-keyboard-response","200","303857","0.0-10.0-1.85","https://mcdermottlab.mit.edu/mturk_stimuli/bjmedina/global-music-2025-n_80/sequences/isi_16/len120/seq052_len120_s10_isi-1p0_0p0_16p0.json","10.69","true","2cyrm1hqd12","","null","<span style=""font-size: 40px"">+</span>","null","","","","","","","","","",""
"","","","","","audio-button-response","201","306183","0.0-10.0-2.85","https://mcdermottlab.mit.edu/mturk_stimuli/bjmedina/global-music-2025-n_80/sequences/isi_16/len120/seq052_len120_s10_isi-1p0_0p0_16p0.json","10.69","true","2cyrm1hqd12","","2091","https://mcdermottlab.mit.edu/mturk_stimuli/bjmedina/global-music-2025-n_80/mem_stim_41.wav","1","main","","","false","mem_stim_41.wav","false","-1","","0","false_alarm"
"","","","","","html-keyboard-response","202","306253","0.0-10.0-1.86","https://mcdermottlab.mit.edu/mturk_stimuli/bjmedina/global-music-2025-n_80/sequences/isi_16/len120/seq052_len120_s10_isi-1p0_0p0_16p0.json","10.69","true","2cyrm1hqd12","","null","<span style=""font-size: 40px"">+</span>","null","","","","","","","","","",""
"","","","","","audio-button-response","203","308818","0.0-10.0-2.86","https://mcdermottlab.mit.edu/mturk_stimuli/bjmedina/global-music-2025-n_80/sequences/isi_16/len120/seq052_len120_s10_isi-1p0_0p0_16p0.json","10.69","true","2cyrm1hqd12","","2381","https://mcdermottlab.mit.edu/mturk_stimuli/bjmedina/global-music-2025-n_80/mem_stim_14.wav","0","main","","","false","mem_stim_14.wav","false","-1","","1","correct_rejection"
"","","","","","html-keyboard-response","204","308877","0.0-10.0-1.87","https://mcdermottlab.mit.edu/mturk_stimuli/bjmedina/global-music-2025-n_80/sequences/isi_16/len120/seq052_len120_s10_isi-1p0_0p0_16p0.json","10.69","true","2cyrm1hqd12","","null","<span style=""font-size: 40px"">+</span>","null","","","","","","","","","",""
"","","","","","audio-button-response","205","312104","0.0-10.0-2.87","https://mcdermottlab.mit.edu/mturk_stimuli/bjmedina/global-music-2025-n_80/sequences/isi_16/len120/seq052_len120_s10_isi-1p0_0p0_16p0.json","10.69","true","2cyrm1hqd12","","3000","https://mcdermottlab.mit.edu/mturk_stimuli/bjmedina/global-music-2025-n_80/mem_stim_64.wav","1","main","","","false","mem_stim_64.wav","false","-1","","0","false_alarm"
"","","","","","html-keyboard-response","206","312169","0.0-10.0-1.88","https://mcdermottlab.mit.edu/mturk_stimuli/bjmedina/global-music-2025-n_80/sequences/isi_16/len120/seq052_len120_s10_isi-1p0_0p0_16p0.json","10.69","true","2cyrm1hqd12","","null","<span style=""font-size: 40px"">+</span>","null","","","","","","","","","",""
"","","","","","audio-button-response","207","315203","0.0-10.0-2.88","https://mcdermottlab.mit.edu/mturk_stimuli/bjmedina/global-music-2025-n_80/sequences/isi_16/len120/seq052_len120_s10_isi-1p0_0p0_16p0.json","10.69","true","2cyrm1hqd12","","2800","https://mcdermottlab.mit.edu/mturk_stimuli/bjmedina/global-music-2025-n_80/mem_stim_30.wav","1","main","","","false","mem_stim_30.wav","false","-1","","0","false_alarm"
"","","","","","html-keyboard-response","208","315276","0.0-10.0-1.89","https://mcdermottlab.mit.edu/mturk_stimuli/bjmedina/global-music-2025-n_80/sequences/isi_16/len120/seq052_len120_s10_isi-1p0_0p0_16p0.json","10.69","true","2cyrm1hqd12","","null","<span style=""font-size: 40px"">+</span>","null","","","","","","","","","",""
"","","","","","audio-button-response","209","317826","0.0-10.0-2.89","https://mcdermottlab.mit.edu/mturk_stimuli/bjmedina/global-music-2025-n_80/sequences/isi_16/len120/seq052_len120_s10_isi-1p0_0p0_16p0.json","10.69","true","2cyrm1hqd12","","2371","https://mcdermottlab.mit.edu/mturk_stimuli/bjmedina/global-music-2025-n_80/mem_stim_7.wav","1","main","","","false","mem_stim_7.wav","false","-1","","0","false_alarm"
"","","","","","html-keyboard-response","210","317884","0.0-10.0-1.90","https://mcdermottlab.mit.edu/mturk_stimuli/bjmedina/global-music-2025-n_80/sequences/isi_16/len120/seq052_len120_s10_isi-1p0_0p0_16p0.json","10.69","true","2cyrm1hqd12","","null","<span style=""font-size: 40px"">+</span>","null","","","","","","","","","",""
"","","","","","audio-button-response","211","320309","0.0-10.0-2.90","https://mcdermottlab.mit.edu/mturk_stimuli/bjmedina/global-music-2025-n_80/sequences/isi_16/len120/seq052_len120_s10_isi-1p0_0p0_16p0.json","10.69","true","2cyrm1hqd12","","2240","https://mcdermottlab.mit.edu/mturk_stimuli/bjmedina/global-music-2025-n_80/mem_stim_25.wav","2","main","","","false","mem_stim_25.wav","false","-1","","1","correct_rejection"
"","","","","","html-keyboard-response","212","320367","0.0-10.0-1.91","https://mcdermottlab.mit.edu/mturk_stimuli/bjmedina/global-music-2025-n_80/sequences/isi_16/len120/seq052_len120_s10_isi-1p0_0p0_16p0.json","10.69","true","2cyrm1hqd12","","null","<span style=""font-size: 40px"">+</span>","null","","","","","","","","","",""
"","","","","","audio-button-response","213","322568","0.0-10.0-2.91","https://mcdermottlab.mit.edu/mturk_stimuli/bjmedina/global-music-2025-n_80/sequences/isi_16/len120/seq052_len120_s10_isi-1p0_0p0_16p0.json","10.69","true","2cyrm1hqd12","","2029","https://mcdermottlab.mit.edu/mturk_stimuli/bjmedina/global-music-2025-n_80/mem_stim_54.wav","2","main","","","false","mem_stim_54.wav","false","-1","","1","correct_rejection"
"","","","","","html-keyboard-response","214","322625","0.0-10.0-1.92","https://mcdermottlab.mit.edu/mturk_stimuli/bjmedina/global-music-2025-n_80/sequences/isi_16/len120/seq052_len120_s10_isi-1p0_0p0_16p0.json","10.69","true","2cyrm1hqd12","","null","<span style=""font-size: 40px"">+</span>","null","","","","","","","","","",""
"","","","","","audio-button-response","215","324701","0.0-10.0-2.92","https://mcdermottlab.mit.edu/mturk_stimuli/bjmedina/global-music-2025-n_80/sequences/isi_16/len120/seq052_len120_s10_isi-1p0_0p0_16p0.json","10.69","true","2cyrm1hqd12","","2080","https://mcdermottlab.mit.edu/mturk_stimuli/bjmedina/global-music-2025-n_80/mem_stim_54.wav","3","main","","","true","mem_stim_54.wav","true","0","","0","miss"
"","","","","","html-keyboard-response","216","324758","0.0-10.0-1.93","https://mcdermottlab.mit.edu/mturk_stimuli/bjmedina/global-music-2025-n_80/sequences/isi_16/len120/seq052_len120_s10_isi-1p0_0p0_16p0.json","10.69","true","2cyrm1hqd12","","null","<span style=""font-size: 40px"">+</span>","null","","","","","","","","","",""
"","","","","","audio-button-response","217","327272","0.0-10.0-2.93","https://mcdermottlab.mit.edu/mturk_stimuli/bjmedina/global-music-2025-n_80/sequences/isi_16/len120/seq052_len120_s10_isi-1p0_0p0_16p0.json","10.69","true","2cyrm1hqd12","","2309","https://mcdermottlab.mit.edu/mturk_stimuli/bjmedina/global-music-2025-n_80/mem_stim_66.wav","0","main","","","false","mem_stim_66.wav","false","-1","","1","correct_rejection"
"","","","","","html-keyboard-response","218","327337","0.0-10.0-1.94","https://mcdermottlab.mit.edu/mturk_stimuli/bjmedina/global-music-2025-n_80/sequences/isi_16/len120/seq052_len120_s10_isi-1p0_0p0_16p0.json","10.69","true","2cyrm1hqd12","","null","<span style=""font-size: 40px"">+</span>","null","","","","","","","","","",""
"","","","","","audio-button-response","219","329790","0.0-10.0-2.94","https://mcdermottlab.mit.edu/mturk_stimuli/bjmedina/global-music-2025-n_80/sequences/isi_16/len120/seq052_len120_s10_isi-1p0_0p0_16p0.json","10.69","true","2cyrm1hqd12","","2280","https://mcdermottlab.mit.edu/mturk_stimuli/bjmedina/global-music-2025-n_80/mem_stim_4.wav","3","main","","","false","mem_stim_4.wav","false","-1","","1","correct_rejection"
"","","","","","html-keyboard-response","220","329860","0.0-10.0-1.95","https://mcdermottlab.mit.edu/mturk_stimuli/bjmedina/global-music-2025-n_80/sequences/isi_16/len120/seq052_len120_s10_isi-1p0_0p0_16p0.json","10.69","true","2cyrm1hqd12","","null","<span style=""font-size: 40px"">+</span>","null","","","","","","","","","",""
"","","","","","audio-button-response","221","331922","0.0-10.0-2.95","https://mcdermottlab.mit.edu/mturk_stimuli/bjmedina/global-music-2025-n_80/sequences/isi_16/len120/seq052_len120_s10_isi-1p0_0p0_16p0.json","10.69","true","2cyrm1hqd12","","2059","https://mcdermottlab.mit.edu/mturk_stimuli/bjmedina/global-music-2025-n_80/mem_stim_4.wav","3","main","","","true","mem_stim_4.wav","true","0","","0","miss"
"","","","","","html-keyboard-response","222","331982","0.0-10.0-1.96","https://mcdermottlab.mit.edu/mturk_stimuli/bjmedina/global-music-2025-n_80/sequences/isi_16/len120/seq052_len120_s10_isi-1p0_0p0_16p0.json","10.69","true","2cyrm1hqd12","","null","<span style=""font-size: 40px"">+</span>","null","","","","","","","","","",""
"","","","","","audio-button-response","223","333982","0.0-10.0-2.96","https://mcdermottlab.mit.edu/mturk_stimuli/bjmedina/global-music-2025-n_80/sequences/isi_16/len120/seq052_len120_s10_isi-1p0_0p0_16p0.json","10.69","true","2cyrm1hqd12","","2000","https://mcdermottlab.mit.edu/mturk_stimuli/bjmedina/global-music-2025-n_80/mem_stim_36.wav","1","main","","","true","mem_stim_36.wav","false","16","","1","hit"
"","","","","","html-keyboard-response","224","334041","0.0-10.0-1.97","https://mcdermottlab.mit.edu/mturk_stimuli/bjmedina/global-music-2025-n_80/sequences/isi_16/len120/seq052_len120_s10_isi-1p0_0p0_16p0.json","10.69","true","2cyrm1hqd12","","null","<span style=""font-size: 40px"">+</span>","null","","","","","","","","","",""
"","","","","","audio-button-response","225","336613","0.0-10.0-2.97","https://mcdermottlab.mit.edu/mturk_stimuli/bjmedina/global-music-2025-n_80/sequences/isi_16/len120/seq052_len120_s10_isi-1p0_0p0_16p0.json","10.69","true","2cyrm1hqd12","","2349","https://mcdermottlab.mit.edu/mturk_stimuli/bjmedina/global-music-2025-n_80/mem_stim_35.wav","0","main","","","false","mem_stim_35.wav","false","-1","","1","correct_rejection"
"","","","","","html-keyboard-response","226","336685","0.0-10.0-1.98","https://mcdermottlab.mit.edu/mturk_stimuli/bjmedina/global-music-2025-n_80/sequences/isi_16/len120/seq052_len120_s10_isi-1p0_0p0_16p0.json","10.69","true","2cyrm1hqd12","","null","<span style=""font-size: 40px"">+</span>","null","","","","","","","","","",""
"","","","","","audio-button-response","227","338764","0.0-10.0-2.98","https://mcdermottlab.mit.edu/mturk_stimuli/bjmedina/global-music-2025-n_80/sequences/isi_16/len120/seq052_len120_s10_isi-1p0_0p0_16p0.json","10.69","true","2cyrm1hqd12","","2080","https://mcdermottlab.mit.edu/mturk_stimuli/bjmedina/global-music-2025-n_80/mem_stim_35.wav","3","main","","","true","mem_stim_35.wav","true","0","","0","miss"
"","","","","","html-keyboard-response","228","338822","0.0-10.0-1.99","https://mcdermottlab.mit.edu/mturk_stimuli/bjmedina/global-music-2025-n_80/sequences/isi_16/len120/seq052_len120_s10_isi-1p0_0p0_16p0.json","10.69","true","2cyrm1hqd12","","null","<span style=""font-size: 40px"">+</span>","null","","","","","","","","","",""
"","","","","","audio-button-response","229","341163","0.0-10.0-2.99","https://mcdermottlab.mit.edu/mturk_stimuli/bjmedina/global-music-2025-n_80/sequences/isi_16/len120/seq052_len120_s10_isi-1p0_0p0_16p0.json","10.69","true","2cyrm1hqd12","","2339","https://mcdermottlab.mit.edu/mturk_stimuli/bjmedina/global-music-2025-n_80/mem_stim_21.wav","1","main","","","true","mem_stim_21.wav","false","16","","1","hit"
"","","","","","html-keyboard-response","230","341236","0.0-10.0-1.100","https://mcdermottlab.mit.edu/mturk_stimuli/bjmedina/global-music-2025-n_80/sequences/isi_16/len120/seq052_len120_s10_isi-1p0_0p0_16p0.json","10.69","true","2cyrm1hqd12","","null","<span style=""font-size: 40px"">+</span>","null","","","","","","","","","",""
"","","","","","audio-button-response","231","343606","0.0-10.0-2.100","https://mcdermottlab.mit.edu/mturk_stimuli/bjmedina/global-music-2025-n_80/sequences/isi_16/len120/seq052_len120_s10_isi-1p0_0p0_16p0.json","10.69","true","2cyrm1hqd12","","2360","https://mcdermottlab.mit.edu/mturk_stimuli/bjmedina/global-music-2025-n_80/mem_stim_45.wav","3","main","","","true","mem_stim_45.wav","false","16","","0","miss"
"","","","","","html-keyboard-response","232","343665","0.0-10.0-1.101","https://mcdermottlab.mit.edu/mturk_stimuli/bjmedina/global-music-2025-n_80/sequences/isi_16/len120/seq052_len120_s10_isi-1p0_0p0_16p0.json","10.69","true","2cyrm1hqd12","","null","<span style=""font-size: 40px"">+</span>","null","","","","","","","","","",""
"","","","","","audio-button-response","233","346634","0.0-10.0-2.101","https://mcdermottlab.mit.edu/mturk_stimuli/bjmedina/global-music-2025-n_80/sequences/isi_16/len120/seq052_len120_s10_isi-1p0_0p0_16p0.json","10.69","true","2cyrm1hqd12","","2739","https://mcdermottlab.mit.edu/mturk_stimuli/bjmedina/global-music-2025-n_80/mem_stim_27.wav","1","main","","","false","mem_stim_27.wav","false","-1","","0","false_alarm"
"","","","","","html-keyboard-response","234","346699","0.0-10.0-1.102","https://mcdermottlab.mit.edu/mturk_stimuli/bjmedina/global-music-2025-n_80/sequences/isi_16/len120/seq052_len120_s10_isi-1p0_0p0_16p0.json","10.69","true","2cyrm1hqd12","","null","<span style=""font-size: 40px"">+</span>","null","","","","","","","","","",""
"","","","","","audio-button-response","235","349261","0.0-10.0-2.102","https://mcdermottlab.mit.edu/mturk_stimuli/bjmedina/global-music-2025-n_80/sequences/isi_16/len120/seq052_len120_s10_isi-1p0_0p0_16p0.json","10.69","true","2cyrm1hqd12","","2392","https://mcdermottlab.mit.edu/mturk_stimuli/bjmedina/global-music-2025-n_80/mem_stim_16.wav","1","main","","","false","mem_stim_16.wav","false","-1","","0","false_alarm"
"","","","","","html-keyboard-response","236","349334","0.0-10.0-1.103","https://mcdermottlab.mit.edu/mturk_stimuli/bjmedina/global-music-2025-n_80/sequences/isi_16/len120/seq052_len120_s10_isi-1p0_0p0_16p0.json","10.69","true","2cyrm1hqd12","","null","<span style=""font-size: 40px"">+</span>","null","","","","","","","","","",""
"","","","","","audio-button-response","237","352064","0.0-10.0-2.103","https://mcdermottlab.mit.edu/mturk_stimuli/bjmedina/global-music-2025-n_80/sequences/isi_16/len120/seq052_len120_s10_isi-1p0_0p0_16p0.json","10.69","true","2cyrm1hqd12","","2731","https://mcdermottlab.mit.edu/mturk_stimuli/bjmedina/global-music-2025-n_80/mem_stim_14.wav","2","main","","","true","mem_stim_14.wav","false","16","","0","miss"
"","","","","","html-keyboard-response","238","352131","0.0-10.0-1.104","https://mcdermottlab.mit.edu/mturk_stimuli/bjmedina/global-music-2025-n_80/sequences/isi_16/len120/seq052_len120_s10_isi-1p0_0p0_16p0.json","10.69","true","2cyrm1hqd12","","null","<span style=""font-size: 40px"">+</span>","null","","","","","","","","","",""
"","","","","","audio-button-response","239","354526","0.0-10.0-2.104","https://mcdermottlab.mit.edu/mturk_stimuli/bjmedina/global-music-2025-n_80/sequences/isi_16/len120/seq052_len120_s10_isi-1p0_0p0_16p0.json","10.69","true","2cyrm1hqd12","","2389","https://mcdermottlab.mit.edu/mturk_stimuli/bjmedina/global-music-2025-n_80/mem_stim_64.wav","1","main","","","true","mem_stim_64.wav","false","16","","1","hit"
"","","","","","html-keyboard-response","240","354585","0.0-10.0-1.105","https://mcdermottlab.mit.edu/mturk_stimuli/bjmedina/global-music-2025-n_80/sequences/isi_16/len120/seq052_len120_s10_isi-1p0_0p0_16p0.json","10.69","true","2cyrm1hqd12","","null","<span style=""font-size: 40px"">+</span>","null","","","","","","","","","",""
"","","","","","audio-button-response","241","356836","0.0-10.0-2.105","https://mcdermottlab.mit.edu/mturk_stimuli/bjmedina/global-music-2025-n_80/sequences/isi_16/len120/seq052_len120_s10_isi-1p0_0p0_16p0.json","10.69","true","2cyrm1hqd12","","2248","https://mcdermottlab.mit.edu/mturk_stimuli/bjmedina/global-music-2025-n_80/mem_stim_30.wav","1","main","","","true","mem_stim_30.wav","false","16","","1","hit"
"","","","","","html-keyboard-response","242","356894","0.0-10.0-1.106","https://mcdermottlab.mit.edu/mturk_stimuli/bjmedina/global-music-2025-n_80/sequences/isi_16/len120/seq052_len120_s10_isi-1p0_0p0_16p0.json","10.69","true","2cyrm1hqd12","","null","<span style=""font-size: 40px"">+</span>","null","","","","","","","","","",""
"","","","","","audio-button-response","243","360345","0.0-10.0-2.106","https://mcdermottlab.mit.edu/mturk_stimuli/bjmedina/global-music-2025-n_80/sequences/isi_16/len120/seq052_len120_s10_isi-1p0_0p0_16p0.json","10.69","true","2cyrm1hqd12","","3451","https://mcdermottlab.mit.edu/mturk_stimuli/bjmedina/global-music-2025-n_80/mem_stim_7.wav","2","main","","","true","mem_stim_7.wav","false","16","","0","miss"
"","","","","","html-keyboard-response","244","360415","0.0-10.0-1.107","https://mcdermottlab.mit.edu/mturk_stimuli/bjmedina/global-music-2025-n_80/sequences/isi_16/len120/seq052_len120_s10_isi-1p0_0p0_16p0.json","10.69","true","2cyrm1hqd12","","null","<span style=""font-size: 40px"">+</span>","null","","","","","","","","","",""
"","","","","","audio-button-response","245","362450","0.0-10.0-2.107","https://mcdermottlab.mit.edu/mturk_stimuli/bjmedina/global-music-2025-n_80/sequences/isi_16/len120/seq052_len120_s10_isi-1p0_0p0_16p0.json","10.69","true","2cyrm1hqd12","","2040","https://mcdermottlab.mit.edu/mturk_stimuli/bjmedina/global-music-2025-n_80/mem_stim_25.wav","3","main","","","true","mem_stim_25.wav","false","16","","0","miss"
"","","","","","html-keyboard-response","246","362508","0.0-10.0-1.108","https://mcdermottlab.mit.edu/mturk_stimuli/bjmedina/global-music-2025-n_80/sequences/isi_16/len120/seq052_len120_s10_isi-1p0_0p0_16p0.json","10.69","true","2cyrm1hqd12","","null","<span style=""font-size: 40px"">+</span>","null","","","","","","","","","",""
"","","","","","audio-button-response","247","364961","0.0-10.0-2.108","https://mcdermottlab.mit.edu/mturk_stimuli/bjmedina/global-music-2025-n_80/sequences/isi_16/len120/seq052_len120_s10_isi-1p0_0p0_16p0.json","10.69","true","2cyrm1hqd12","","2179","https://mcdermottlab.mit.edu/mturk_stimuli/bjmedina/global-music-2025-n_80/mem_stim_42.wav","2","main","","","false","mem_stim_42.wav","false","-1","","1","correct_rejection"
"","","","","","html-keyboard-response","248","365032","0.0-10.0-1.109","https://mcdermottlab.mit.edu/mturk_stimuli/bjmedina/global-music-2025-n_80/sequences/isi_16/len120/seq052_len120_s10_isi-1p0_0p0_16p0.json","10.69","true","2cyrm1hqd12","","null","<span style=""font-size: 40px"">+</span>","null","","","","","","","","","",""
"","","","","","audio-button-response","249","367612","0.0-10.0-2.109","https://mcdermottlab.mit.edu/mturk_stimuli/bjmedina/global-music-2025-n_80/sequences/isi_16/len120/seq052_len120_s10_isi-1p0_0p0_16p0.json","10.69","true","2cyrm1hqd12","","2309","https://mcdermottlab.mit.edu/mturk_stimuli/bjmedina/global-music-2025-n_80/mem_stim_17.wav","1","main","","","false","mem_stim_17.wav","false","-1","","0","false_alarm"
"","","","","","html-keyboard-response","250","367670","0.0-10.0-1.110","https://mcdermottlab.mit.edu/mturk_stimuli/bjmedina/global-music-2025-n_80/sequences/isi_16/len120/seq052_len120_s10_isi-1p0_0p0_16p0.json","10.69","true","2cyrm1hqd12","","null","<span style=""font-size: 40px"">+</span>","null","","","","","","","","","",""
"","","","","","audio-button-response","251","370187","0.0-10.0-2.110","https://mcdermottlab.mit.edu/mturk_stimuli/bjmedina/global-music-2025-n_80/sequences/isi_16/len120/seq052_len120_s10_isi-1p0_0p0_16p0.json","10.69","true","2cyrm1hqd12","","2299","https://mcdermottlab.mit.edu/mturk_stimuli/bjmedina/global-music-2025-n_80/mem_stim_28.wav","0","main","","","false","mem_stim_28.wav","false","-1","","1","correct_rejection"
"","","","","","html-keyboard-response","252","370249","0.0-10.0-1.111","https://mcdermottlab.mit.edu/mturk_stimuli/bjmedina/global-music-2025-n_80/sequences/isi_16/len120/seq052_len120_s10_isi-1p0_0p0_16p0.json","10.69","true","2cyrm1hqd12","","null","<span style=""font-size: 40px"">+</span>","null","","","","","","","","","",""
"","","","","","audio-button-response","253","372720","0.0-10.0-2.111","https://mcdermottlab.mit.edu/mturk_stimuli/bjmedina/global-music-2025-n_80/sequences/isi_16/len120/seq052_len120_s10_isi-1p0_0p0_16p0.json","10.69","true","2cyrm1hqd12","","2269","https://mcdermottlab.mit.edu/mturk_stimuli/bjmedina/global-music-2025-n_80/mem_stim_76.wav","1","main","","","false","mem_stim_76.wav","false","-1","","0","false_alarm"
"","","","","","html-keyboard-response","254","372778","0.0-10.0-1.112","https://mcdermottlab.mit.edu/mturk_stimuli/bjmedina/global-music-2025-n_80/sequences/isi_16/len120/seq052_len120_s10_isi-1p0_0p0_16p0.json","10.69","true","2cyrm1hqd12","","null","<span style=""font-size: 40px"">+</span>","null","","","","","","","","","",""
"","","","","","audio-button-response","255","375257","0.0-10.0-2.112","https://mcdermottlab.mit.edu/mturk_stimuli/bjmedina/global-music-2025-n_80/sequences/isi_16/len120/seq052_len120_s10_isi-1p0_0p0_16p0.json","10.69","true","2cyrm1hqd12","","2301","https://mcdermottlab.mit.edu/mturk_stimuli/bjmedina/global-music-2025-n_80/mem_stim_58.wav","1","main","","","false","mem_stim_58.wav","false","-1","","0","false_alarm"
"","","","","","html-keyboard-response","256","375316","0.0-10.0-1.113","https://mcdermottlab.mit.edu/mturk_stimuli/bjmedina/global-music-2025-n_80/sequences/isi_16/len120/seq052_len120_s10_isi-1p0_0p0_16p0.json","10.69","true","2cyrm1hqd12","","null","<span style=""font-size: 40px"">+</span>","null","","","","","","","","","",""
"","","","","","audio-button-response","257","377912","0.0-10.0-2.113","https://mcdermottlab.mit.edu/mturk_stimuli/bjmedina/global-music-2025-n_80/sequences/isi_16/len120/seq052_len120_s10_isi-1p0_0p0_16p0.json","10.69","true","2cyrm1hqd12","","2379","https://mcdermottlab.mit.edu/mturk_stimuli/bjmedina/global-music-2025-n_80/mem_stim_47.wav","0","main","","","false","mem_stim_47.wav","false","-1","","1","correct_rejection"
"","","","","","html-keyboard-response","258","377971","0.0-10.0-1.114","https://mcdermottlab.mit.edu/mturk_stimuli/bjmedina/global-music-2025-n_80/sequences/isi_16/len120/seq052_len120_s10_isi-1p0_0p0_16p0.json","10.69","true","2cyrm1hqd12","","null","<span style=""font-size: 40px"">+</span>","null","","","","","","","","","",""
"","","","","","audio-button-response","259","380376","0.0-10.0-2.114","https://mcdermottlab.mit.edu/mturk_stimuli/bjmedina/global-music-2025-n_80/sequences/isi_16/len120/seq052_len120_s10_isi-1p0_0p0_16p0.json","10.69","true","2cyrm1hqd12","","2181","https://mcdermottlab.mit.edu/mturk_stimuli/bjmedina/global-music-2025-n_80/mem_stim_2.wav","1","main","","","false","mem_stim_2.wav","false","-1","","0","false_alarm"
"","","","","","html-keyboard-response","260","380439","0.0-10.0-1.115","https://mcdermottlab.mit.edu/mturk_stimuli/bjmedina/global-music-2025-n_80/sequences/isi_16/len120/seq052_len120_s10_isi-1p0_0p0_16p0.json","10.69","true","2cyrm1hqd12","","null","<span style=""font-size: 40px"">+</span>","null","","","","","","","","","",""
"","","","","","audio-button-response","261","382802","0.0-10.0-2.115","https://mcdermottlab.mit.edu/mturk_stimuli/bjmedina/global-music-2025-n_80/sequences/isi_16/len120/seq052_len120_s10_isi-1p0_0p0_16p0.json","10.69","true","2cyrm1hqd12","","2109","https://mcdermottlab.mit.edu/mturk_stimuli/bjmedina/global-music-2025-n_80/mem_stim_57.wav","2","main","","","false","mem_stim_57.wav","false","-1","","1","correct_rejection"
"","","","","","html-keyboard-response","262","382862","0.0-10.0-1.116","https://mcdermottlab.mit.edu/mturk_stimuli/bjmedina/global-music-2025-n_80/sequences/isi_16/len120/seq052_len120_s10_isi-1p0_0p0_16p0.json","10.69","true","2cyrm1hqd12","","null","<span style=""font-size: 40px"">+</span>","null","","","","","","","","","",""
"","","","","","audio-button-response","263","385389","0.0-10.0-2.116","https://mcdermottlab.mit.edu/mturk_stimuli/bjmedina/global-music-2025-n_80/sequences/isi_16/len120/seq052_len120_s10_isi-1p0_0p0_16p0.json","10.69","true","2cyrm1hqd12","","2309","https://mcdermottlab.mit.edu/mturk_stimuli/bjmedina/global-music-2025-n_80/mem_stim_60.wav","2","main","","","false","mem_stim_60.wav","false","-1","","1","correct_rejection"
"","","","","","html-keyboard-response","264","385450","0.0-10.0-1.117","https://mcdermottlab.mit.edu/mturk_stimuli/bjmedina/global-music-2025-n_80/sequences/isi_16/len120/seq052_len120_s10_isi-1p0_0p0_16p0.json","10.69","true","2cyrm1hqd12","","null","<span style=""font-size: 40px"">+</span>","null","","","","","","","","","",""
"","","","","","audio-button-response","265","388336","0.0-10.0-2.117","https://mcdermottlab.mit.edu/mturk_stimuli/bjmedina/global-music-2025-n_80/sequences/isi_16/len120/seq052_len120_s10_isi-1p0_0p0_16p0.json","10.69","true","2cyrm1hqd12","","2632","https://mcdermottlab.mit.edu/mturk_stimuli/bjmedina/global-music-2025-n_80/mem_stim_8.wav","1","main","","","false","mem_stim_8.wav","false","-1","","0","false_alarm"
