"success","timeout","failed_images","failed_audio","failed_video","trial_type","trial_index","time_elapsed","internal_node_id","sequence_file","pay","passed_hc","completion_code","view_history","rt","stimulus","response","stim_type","hc_answer","correct_hc","repeat","yt_id","catch","isi","type","is_correct","response_type"
"true","false","[]","[]","[]","preload","0","96","0.0-0.0","https://mcdermottlab.mit.edu/mturk_stimuli/bjmedina/global-music-2025-n_80/sequences/isi_16/len120/seq020_len120_s10_isi-1p0_0p0_16p0.json","10.72","true","3sjyer6td42","","","","","","","","","","","","","",""
"","","","","","instructions","1","1595","0.0-1.0","https://mcdermottlab.mit.edu/mturk_stimuli/bjmedina/global-music-2025-n_80/sequences/isi_16/len120/seq020_len120_s10_isi-1p0_0p0_16p0.json","10.72","true","3sjyer6td42","[{""page_index"":0,""viewing_time"":1499}]","1499","","","","","","","","","","","",""
"","","","","","instructions","2","6611","0.0-2.0","https://mcdermottlab.mit.edu/mturk_stimuli/bjmedina/global-music-2025-n_80/sequences/isi_16/len120/seq020_len120_s10_isi-1p0_0p0_16p0.json","10.72","true","3sjyer6td42","[{""page_index"":0,""viewing_time"":5015}]","5015","","","","","","","","","","","",""
"","","","","","audio-button-response","3","14695","0.0-3.0-0.0","https://mcdermottlab.mit.edu/mturk_stimuli/bjmedina/global-music-2025-n_80/sequences/isi_16/len120/seq020_len120_s10_isi-1p0_0p0_16p0.json","10.72","true","3sjyer6td42","","7723","https://mcdermottlab.mit.edu/bjmedina/experiments/mem_exp_v01/assets/noise_calib_stim.wav","0","","","","","","","","","",""
"","","","","","audio-button-response","4","19161","0.0-3.1-0.1","https://mcdermottlab.mit.edu/mturk_stimuli/bjmedina/global-music-2025-n_80/sequences/isi_16/len120/seq020_len120_s10_isi-1p0_0p0_16p0.json","10.72","true","3sjyer6td42","","4464","https://mcdermottlab.mit.edu/bjmedina/experiments/mem_exp_v01/assets/noise_calib_stim.wav","1","","","","","","","","","",""
"","","","","","instructions","5","22445","0.0-4.0","https://mcdermottlab.mit.edu/mturk_stimuli/bjmedina/global-music-2025-n_80/sequences/isi_16/len120/seq020_len120_s10_isi-1p0_0p0_16p0.json","10.72","true","3sjyer6td42","[{""page_index"":0,""viewing_time"":3283}]","3283","","","","","","","","","","","",""
"","","","","","audio-button-response","6","28461","0.0-5.0-0.0","https://mcdermottlab.mit.edu/mturk_stimuli/bjmedina/global-music-2025-n_80/sequences/isi_16/len120/seq020_len120_s10_isi-1p0_0p0_16p0.json","10.72","true","3sjyer6td42","","5403","https://mcdermottlab.mit.edu/bjmedina/experiments/mem_exp_v01/assets/antiphase_HC_OIS.wav","2","hc","3","1","","","","","","",""
"","","","","","audio-button-response","7","34261","0.0-5.0-0.1","https://mcdermottlab.mit.edu/mturk_stimuli/bjmedina/global-music-2025-n_80/sequences/isi_16/len120/seq020_len120_s10_isi-1p0_0p0_16p0.json","10.72","true","3sjyer6td42","","5200","https://mcdermottlab.mit.edu/bjmedina/experiments/mem_exp_v01/assets/antiphase_HC_SIO.wav","0","hc","1","1","","","","","","",""
"","","","","","audio-button-response","8","39544","0.0-5.0-0.2","https://mcdermottlab.mit.edu/mturk_stimuli/bjmedina/global-music-2025-n_80/sequences/isi_16/len120/seq020_len120_s10_isi-1p0_0p0_16p0.json","10.72","true","3sjyer6td42","","4672","https://mcdermottlab.mit.edu/bjmedina/experiments/mem_exp_v01/assets/antiphase_HC_SOI.wav","0","hc","1","1","","","","","","",""
"","","","","","audio-button-response","9","44461","0.0-5.0-0.3","https://mcdermottlab.mit.edu/mturk_stimuli/bjmedina/global-music-2025-n_80/sequences/isi_16/len120/seq020_len120_s10_isi-1p0_0p0_16p0.json","10.72","true","3sjyer6td42","","4528","https://mcdermottlab.mit.edu/bjmedina/experiments/mem_exp_v01/assets/antiphase_HC_IOS.wav","2","hc","3","1","","","","","","",""
"","","","","","audio-button-response","10","49711","0.0-5.0-0.4","https://mcdermottlab.mit.edu/mturk_stimuli/bjmedina/global-music-2025-n_80/sequences/isi_16/len120/seq020_len120_s10_isi-1p0_0p0_16p0.json","10.72","true","3sjyer6td42","","4869","https://mcdermottlab.mit.edu/bjmedina/experiments/mem_exp_v01/assets/antiphase_HC_OSI.wav","1","hc","2","1","","","","","","",""
"","","","","","audio-button-response","11","54827","0.0-5.0-0.5","https://mcdermottlab.mit.edu/mturk_stimuli/bjmedina/global-music-2025-n_80/sequences/isi_16/len120/seq020_len120_s10_isi-1p0_0p0_16p0.json","10.72","true","3sjyer6td42","","4496","https://mcdermottlab.mit.edu/bjmedina/experiments/mem_exp_v01/assets/antiphase_HC_ISO.wav","1","hc","2","1","","","","","","",""
"","","","","","html-keyboard-response","12","56721","0.0-6.0","https://mcdermottlab.mit.edu/mturk_stimuli/bjmedina/global-music-2025-n_80/sequences/isi_16/len120/seq020_len120_s10_isi-1p0_0p0_16p0.json","10.72","true","3sjyer6td42","","1892","<h1>You have finished the LOUDNESS task!</h1> <p>Press space to continue</p>"," ","","","","","","","","","",""
"","","","","","instructions","13","68444","0.0-7.0","https://mcdermottlab.mit.edu/mturk_stimuli/bjmedina/global-music-2025-n_80/sequences/isi_16/len120/seq020_len120_s10_isi-1p0_0p0_16p0.json","10.72","true","3sjyer6td42","[{""page_index"":0,""viewing_time"":1856},{""page_index"":1,""viewing_time"":1683},{""page_index"":2,""viewing_time"":6567},{""page_index"":3,""viewing_time"":1617}]","11722","","","","","","","","","","","",""
"","","","","","html-keyboard-response","14","68496","0.0-8.0-0.0","https://mcdermottlab.mit.edu/mturk_stimuli/bjmedina/global-music-2025-n_80/sequences/isi_16/len120/seq020_len120_s10_isi-1p0_0p0_16p0.json","10.72","true","3sjyer6td42","","null","<span style=""font-size: 40px"">+</span>","null","fixation","","","","","","","","",""
"","","","","","audio-button-response","15","73094","0.0-8.0-1.0","https://mcdermottlab.mit.edu/mturk_stimuli/bjmedina/global-music-2025-n_80/sequences/isi_16/len120/seq020_len120_s10_isi-1p0_0p0_16p0.json","10.72","true","3sjyer6td42","","3925","https://mcdermottlab.mit.edu/mturk_stimuli/bjmedina/mem_exp_v05/mem_stim_1023_f32.wav","1","demo","","","0","","","","","",""
"","","","","","html-keyboard-response","16","73147","0.0-8.0-0.1","https://mcdermottlab.mit.edu/mturk_stimuli/bjmedina/global-music-2025-n_80/sequences/isi_16/len120/seq020_len120_s10_isi-1p0_0p0_16p0.json","10.72","true","3sjyer6td42","","null","<span style=""font-size: 40px"">+</span>","null","fixation","","","","","","","","",""
"","","","","","audio-button-response","17","76427","0.0-8.0-1.1","https://mcdermottlab.mit.edu/mturk_stimuli/bjmedina/global-music-2025-n_80/sequences/isi_16/len120/seq020_len120_s10_isi-1p0_0p0_16p0.json","10.72","true","3sjyer6td42","","2837","https://mcdermottlab.mit.edu/mturk_stimuli/bjmedina/mem_exp_v05/mem_stim_1022_f32.wav","3","demo","","","0","","","","","",""
"","","","","","html-keyboard-response","18","76480","0.0-8.0-0.2","https://mcdermottlab.mit.edu/mturk_stimuli/bjmedina/global-music-2025-n_80/sequences/isi_16/len120/seq020_len120_s10_isi-1p0_0p0_16p0.json","10.72","true","3sjyer6td42","","null","<span style=""font-size: 40px"">+</span>","null","fixation","","","","","","","","",""
"","","","","","audio-button-response","19","78977","0.0-8.0-1.2","https://mcdermottlab.mit.edu/mturk_stimuli/bjmedina/global-music-2025-n_80/sequences/isi_16/len120/seq020_len120_s10_isi-1p0_0p0_16p0.json","10.72","true","3sjyer6td42","","2491","https://mcdermottlab.mit.edu/mturk_stimuli/bjmedina/mem_exp_v05/mem_stim_1022_f32.wav","3","demo","","","1","","","","","",""
"","","","","","html-keyboard-response","20","79030","0.0-8.0-0.3","https://mcdermottlab.mit.edu/mturk_stimuli/bjmedina/global-music-2025-n_80/sequences/isi_16/len120/seq020_len120_s10_isi-1p0_0p0_16p0.json","10.72","true","3sjyer6td42","","null","<span style=""font-size: 40px"">+</span>","null","fixation","","","","","","","","",""
"","","","","","audio-button-response","21","82294","0.0-8.0-1.3","https://mcdermottlab.mit.edu/mturk_stimuli/bjmedina/global-music-2025-n_80/sequences/isi_16/len120/seq020_len120_s10_isi-1p0_0p0_16p0.json","10.72","true","3sjyer6td42","","2592","https://mcdermottlab.mit.edu/mturk_stimuli/bjmedina/mem_exp_v05/mem_stim_1021_f32.wav","3","demo","","","0","","","","","",""
"","","","","","html-keyboard-response","22","82346","0.0-8.0-0.4","https://mcdermottlab.mit.edu/mturk_stimuli/bjmedina/global-music-2025-n_80/sequences/isi_16/len120/seq020_len120_s10_isi-1p0_0p0_16p0.json","10.72","true","3sjyer6td42","","null","<span style=""font-size: 40px"">+</span>","null","fixation","","","","","","","","",""
"","","","","","audio-button-response","23","86344","0.0-8.0-1.4","https://mcdermottlab.mit.edu/mturk_stimuli/bjmedina/global-music-2025-n_80/sequences/isi_16/len120/seq020_len120_s10_isi-1p0_0p0_16p0.json","10.72","true","3sjyer6td42","","4000","https://mcdermottlab.mit.edu/mturk_stimuli/bjmedina/mem_exp_v05/mem_stim_1023_f32.wav","1","demo","","","1","","","","","",""
"","","","","","html-keyboard-response","24","86397","0.0-8.0-0.5","https://mcdermottlab.mit.edu/mturk_stimuli/bjmedina/global-music-2025-n_80/sequences/isi_16/len120/seq020_len120_s10_isi-1p0_0p0_16p0.json","10.72","true","3sjyer6td42","","null","<span style=""font-size: 40px"">+</span>","null","fixation","","","","","","","","",""
"","","","","","audio-button-response","25","89577","0.0-8.0-1.5","https://mcdermottlab.mit.edu/mturk_stimuli/bjmedina/global-music-2025-n_80/sequences/isi_16/len120/seq020_len120_s10_isi-1p0_0p0_16p0.json","10.72","true","3sjyer6td42","","2592","https://mcdermottlab.mit.edu/mturk_stimuli/bjmedina/mem_exp_v05/mem_stim_1020_f32.wav","3","demo","","","0","","","","","",""
"","","","","","html-keyboard-response","26","89630","0.0-8.0-0.6","https://mcdermottlab.mit.edu/mturk_stimuli/bjmedina/global-music-2025-n_80/sequences/isi_16/len120/seq020_len120_s10_isi-1p0_0p0_16p0.json","10.72","true","3sjyer6td42","","null","<span style=""font-size: 40px"">+</span>","null","fixation","","","","","","","","",""
"","","","","","audio-button-response","27","92710","0.0-8.0-1.6","https://mcdermottlab.mit.edu/mturk_stimuli/bjmedina/global-music-2025-n_80/sequences/isi_16/len120/seq020_len120_s10_isi-1p0_0p0_16p0.json","10.72","true","3sjyer6td42","","2629","https://mcdermottlab.mit.edu/mturk_stimuli/bjmedina/mem_exp_v05/mem_stim_1019_f32.wav","2","demo","","","0","","","","","",""
"","","","","","html-keyboard-response","28","92763","0.0-8.0-0.7","https://mcdermottlab.mit.edu/mturk_stimuli/bjmedina/global-music-2025-n_80/sequences/isi_16/len120/seq020_len120_s10_isi-1p0_0p0_16p0.json","10.72","true","3sjyer6td42","","null","<span style=""font-size: 40px"">+</span>","null","fixation","","","","","","","","",""
"","","","","","audio-button-response","29","95243","0.0-8.0-1.7","https://mcdermottlab.mit.edu/mturk_stimuli/bjmedina/global-music-2025-n_80/sequences/isi_16/len120/seq020_len120_s10_isi-1p0_0p0_16p0.json","10.72","true","3sjyer6td42","","2475","https://mcdermottlab.mit.edu/mturk_stimuli/bjmedina/mem_exp_v05/mem_stim_1021_f32.wav","3","demo","","","1","","","","","",""
"","","","","","html-keyboard-response","30","96951","0.0-9.0","https://mcdermottlab.mit.edu/mturk_stimuli/bjmedina/global-music-2025-n_80/sequences/isi_16/len120/seq020_len120_s10_isi-1p0_0p0_16p0.json","10.72","true","3sjyer6td42","","1707","<p>You are now ready to start the experiment. Press SPACE when you are ready to start.</p>"," ","","","","","","","","","",""
"","","","","","html-keyboard-response","31","97004","0.0-10.0-1.0","https://mcdermottlab.mit.edu/mturk_stimuli/bjmedina/global-music-2025-n_80/sequences/isi_16/len120/seq020_len120_s10_isi-1p0_0p0_16p0.json","10.72","true","3sjyer6td42","","null","<span style=""font-size: 40px"">+</span>","null","","","","","","","","","",""
"","","","","","audio-button-response","32","102911","0.0-10.0-2.0","https://mcdermottlab.mit.edu/mturk_stimuli/bjmedina/global-music-2025-n_80/sequences/isi_16/len120/seq020_len120_s10_isi-1p0_0p0_16p0.json","10.72","true","3sjyer6td42","","5381","https://mcdermottlab.mit.edu/mturk_stimuli/bjmedina/global-music-2025-n_80/mem_stim_18.wav","0","main","","","false","mem_stim_18.wav","false","-1","","1","correct_rejection"
"","","","","","html-keyboard-response","33","102969","0.0-10.0-1.1","https://mcdermottlab.mit.edu/mturk_stimuli/bjmedina/global-music-2025-n_80/sequences/isi_16/len120/seq020_len120_s10_isi-1p0_0p0_16p0.json","10.72","true","3sjyer6td42","","null","<span style=""font-size: 40px"">+</span>","null","","","","","","","","","",""
"","","","","","audio-button-response","34","107192","0.0-10.0-2.1","https://mcdermottlab.mit.edu/mturk_stimuli/bjmedina/global-music-2025-n_80/sequences/isi_16/len120/seq020_len120_s10_isi-1p0_0p0_16p0.json","10.72","true","3sjyer6td42","","3707","https://mcdermottlab.mit.edu/mturk_stimuli/bjmedina/global-music-2025-n_80/mem_stim_43.wav","2","main","","","false","mem_stim_43.wav","false","-1","","1","correct_rejection"
"","","","","","html-keyboard-response","35","107247","0.0-10.0-1.2","https://mcdermottlab.mit.edu/mturk_stimuli/bjmedina/global-music-2025-n_80/sequences/isi_16/len120/seq020_len120_s10_isi-1p0_0p0_16p0.json","10.72","true","3sjyer6td42","","null","<span style=""font-size: 40px"">+</span>","null","","","","","","","","","",""
"","","","","","audio-button-response","36","110177","0.0-10.0-2.2","https://mcdermottlab.mit.edu/mturk_stimuli/bjmedina/global-music-2025-n_80/sequences/isi_16/len120/seq020_len120_s10_isi-1p0_0p0_16p0.json","10.72","true","3sjyer6td42","","2619","https://mcdermottlab.mit.edu/mturk_stimuli/bjmedina/global-music-2025-n_80/mem_stim_26.wav","3","main","","","false","mem_stim_26.wav","false","-1","","1","correct_rejection"
"","","","","","html-keyboard-response","37","110234","0.0-10.0-1.3","https://mcdermottlab.mit.edu/mturk_stimuli/bjmedina/global-music-2025-n_80/sequences/isi_16/len120/seq020_len120_s10_isi-1p0_0p0_16p0.json","10.72","true","3sjyer6td42","","null","<span style=""font-size: 40px"">+</span>","null","","","","","","","","","",""
"","","","","","audio-button-response","38","112727","0.0-10.0-2.3","https://mcdermottlab.mit.edu/mturk_stimuli/bjmedina/global-music-2025-n_80/sequences/isi_16/len120/seq020_len120_s10_isi-1p0_0p0_16p0.json","10.72","true","3sjyer6td42","","2496","https://mcdermottlab.mit.edu/mturk_stimuli/bjmedina/global-music-2025-n_80/mem_stim_26.wav","3","main","","","true","mem_stim_26.wav","true","0","","0","miss"
"","","","","","html-keyboard-response","39","112783","0.0-10.0-1.4","https://mcdermottlab.mit.edu/mturk_stimuli/bjmedina/global-music-2025-n_80/sequences/isi_16/len120/seq020_len120_s10_isi-1p0_0p0_16p0.json","10.72","true","3sjyer6td42","","null","<span style=""font-size: 40px"">+</span>","null","","","","","","","","","",""
"","","","","","audio-button-response","40","116827","0.0-10.0-2.4","https://mcdermottlab.mit.edu/mturk_stimuli/bjmedina/global-music-2025-n_80/sequences/isi_16/len120/seq020_len120_s10_isi-1p0_0p0_16p0.json","10.72","true","3sjyer6td42","","3717","https://mcdermottlab.mit.edu/mturk_stimuli/bjmedina/global-music-2025-n_80/mem_stim_11.wav","1","main","","","false","mem_stim_11.wav","false","-1","","0","false_alarm"
"","","","","","html-keyboard-response","41","116884","0.0-10.0-1.5","https://mcdermottlab.mit.edu/mturk_stimuli/bjmedina/global-music-2025-n_80/sequences/isi_16/len120/seq020_len120_s10_isi-1p0_0p0_16p0.json","10.72","true","3sjyer6td42","","null","<span style=""font-size: 40px"">+</span>","null","","","","","","","","","",""
"","","","","","audio-button-response","42","120377","0.0-10.0-2.5","https://mcdermottlab.mit.edu/mturk_stimuli/bjmedina/global-music-2025-n_80/sequences/isi_16/len120/seq020_len120_s10_isi-1p0_0p0_16p0.json","10.72","true","3sjyer6td42","","3189","https://mcdermottlab.mit.edu/mturk_stimuli/bjmedina/global-music-2025-n_80/mem_stim_12.wav","2","main","","","false","mem_stim_12.wav","false","-1","","1","correct_rejection"
"","","","","","html-keyboard-response","43","120432","0.0-10.0-1.6","https://mcdermottlab.mit.edu/mturk_stimuli/bjmedina/global-music-2025-n_80/sequences/isi_16/len120/seq020_len120_s10_isi-1p0_0p0_16p0.json","10.72","true","3sjyer6td42","","null","<span style=""font-size: 40px"">+</span>","null","","","","","","","","","",""
"","","","","","audio-button-response","44","123293","0.0-10.0-2.6","https://mcdermottlab.mit.edu/mturk_stimuli/bjmedina/global-music-2025-n_80/sequences/isi_16/len120/seq020_len120_s10_isi-1p0_0p0_16p0.json","10.72","true","3sjyer6td42","","2565","https://mcdermottlab.mit.edu/mturk_stimuli/bjmedina/global-music-2025-n_80/mem_stim_44.wav","3","main","","","false","mem_stim_44.wav","false","-1","","1","correct_rejection"
"","","","","","html-keyboard-response","45","123348","0.0-10.0-1.7","https://mcdermottlab.mit.edu/mturk_stimuli/bjmedina/global-music-2025-n_80/sequences/isi_16/len120/seq020_len120_s10_isi-1p0_0p0_16p0.json","10.72","true","3sjyer6td42","","null","<span style=""font-size: 40px"">+</span>","null","","","","","","","","","",""
"","","","","","audio-button-response","46","126277","0.0-10.0-2.7","https://mcdermottlab.mit.edu/mturk_stimuli/bjmedina/global-music-2025-n_80/sequences/isi_16/len120/seq020_len120_s10_isi-1p0_0p0_16p0.json","10.72","true","3sjyer6td42","","2624","https://mcdermottlab.mit.edu/mturk_stimuli/bjmedina/global-music-2025-n_80/mem_stim_63.wav","3","main","","","false","mem_stim_63.wav","false","-1","","1","correct_rejection"
"","","","","","html-keyboard-response","47","126332","0.0-10.0-1.8","https://mcdermottlab.mit.edu/mturk_stimuli/bjmedina/global-music-2025-n_80/sequences/isi_16/len120/seq020_len120_s10_isi-1p0_0p0_16p0.json","10.72","true","3sjyer6td42","","null","<span style=""font-size: 40px"">+</span>","null","","","","","","","","","",""
"","","","","","audio-button-response","48","129260","0.0-10.0-2.8","https://mcdermottlab.mit.edu/mturk_stimuli/bjmedina/global-music-2025-n_80/sequences/isi_16/len120/seq020_len120_s10_isi-1p0_0p0_16p0.json","10.72","true","3sjyer6td42","","2640","https://mcdermottlab.mit.edu/mturk_stimuli/bjmedina/global-music-2025-n_80/mem_stim_65.wav","3","main","","","false","mem_stim_65.wav","false","-1","","1","correct_rejection"
"","","","","","html-keyboard-response","49","129316","0.0-10.0-1.9","https://mcdermottlab.mit.edu/mturk_stimuli/bjmedina/global-music-2025-n_80/sequences/isi_16/len120/seq020_len120_s10_isi-1p0_0p0_16p0.json","10.72","true","3sjyer6td42","","null","<span style=""font-size: 40px"">+</span>","null","","","","","","","","","",""
"","","","","","audio-button-response","50","132210","0.0-10.0-2.9","https://mcdermottlab.mit.edu/mturk_stimuli/bjmedina/global-music-2025-n_80/sequences/isi_16/len120/seq020_len120_s10_isi-1p0_0p0_16p0.json","10.72","true","3sjyer6td42","","2587","https://mcdermottlab.mit.edu/mturk_stimuli/bjmedina/global-music-2025-n_80/mem_stim_31.wav","3","main","","","false","mem_stim_31.wav","false","-1","","1","correct_rejection"
"","","","","","html-keyboard-response","51","132266","0.0-10.0-1.10","https://mcdermottlab.mit.edu/mturk_stimuli/bjmedina/global-music-2025-n_80/sequences/isi_16/len120/seq020_len120_s10_isi-1p0_0p0_16p0.json","10.72","true","3sjyer6td42","","null","<span style=""font-size: 40px"">+</span>","null","","","","","","","","","",""
"","","","","","audio-button-response","52","135260","0.0-10.0-2.10","https://mcdermottlab.mit.edu/mturk_stimuli/bjmedina/global-music-2025-n_80/sequences/isi_16/len120/seq020_len120_s10_isi-1p0_0p0_16p0.json","10.72","true","3sjyer6td42","","2699","https://mcdermottlab.mit.edu/mturk_stimuli/bjmedina/global-music-2025-n_80/mem_stim_4.wav","2","main","","","false","mem_stim_4.wav","false","-1","","1","correct_rejection"
"","","","","","html-keyboard-response","53","135316","0.0-10.0-1.11","https://mcdermottlab.mit.edu/mturk_stimuli/bjmedina/global-music-2025-n_80/sequences/isi_16/len120/seq020_len120_s10_isi-1p0_0p0_16p0.json","10.72","true","3sjyer6td42","","null","<span style=""font-size: 40px"">+</span>","null","","","","","","","","","",""
"","","","","","audio-button-response","54","137893","0.0-10.0-2.11","https://mcdermottlab.mit.edu/mturk_stimuli/bjmedina/global-music-2025-n_80/sequences/isi_16/len120/seq020_len120_s10_isi-1p0_0p0_16p0.json","10.72","true","3sjyer6td42","","2576","https://mcdermottlab.mit.edu/mturk_stimuli/bjmedina/global-music-2025-n_80/mem_stim_4.wav","2","main","","","true","mem_stim_4.wav","true","0","","0","miss"
"","","","","","html-keyboard-response","55","137949","0.0-10.0-1.12","https://mcdermottlab.mit.edu/mturk_stimuli/bjmedina/global-music-2025-n_80/sequences/isi_16/len120/seq020_len120_s10_isi-1p0_0p0_16p0.json","10.72","true","3sjyer6td42","","null","<span style=""font-size: 40px"">+</span>","null","","","","","","","","","",""
"","","","","","audio-button-response","56","142778","0.0-10.0-2.12","https://mcdermottlab.mit.edu/mturk_stimuli/bjmedina/global-music-2025-n_80/sequences/isi_16/len120/seq020_len120_s10_isi-1p0_0p0_16p0.json","10.72","true","3sjyer6td42","","4507","https://mcdermottlab.mit.edu/mturk_stimuli/bjmedina/global-music-2025-n_80/mem_stim_60.wav","3","main","","","false","mem_stim_60.wav","false","-1","","1","correct_rejection"
"","","","","","html-keyboard-response","57","142834","0.0-10.0-1.13","https://mcdermottlab.mit.edu/mturk_stimuli/bjmedina/global-music-2025-n_80/sequences/isi_16/len120/seq020_len120_s10_isi-1p0_0p0_16p0.json","10.72","true","3sjyer6td42","","null","<span style=""font-size: 40px"">+</span>","null","","","","","","","","","",""
"","","","","","audio-button-response","58","145827","0.0-10.0-2.13","https://mcdermottlab.mit.edu/mturk_stimuli/bjmedina/global-music-2025-n_80/sequences/isi_16/len120/seq020_len120_s10_isi-1p0_0p0_16p0.json","10.72","true","3sjyer6td42","","2699","https://mcdermottlab.mit.edu/mturk_stimuli/bjmedina/global-music-2025-n_80/mem_stim_78.wav","3","main","","","false","mem_stim_78.wav","false","-1","","1","correct_rejection"
"","","","","","html-keyboard-response","59","145884","0.0-10.0-1.14","https://mcdermottlab.mit.edu/mturk_stimuli/bjmedina/global-music-2025-n_80/sequences/isi_16/len120/seq020_len120_s10_isi-1p0_0p0_16p0.json","10.72","true","3sjyer6td42","","null","<span style=""font-size: 40px"">+</span>","null","","","","","","","","","",""
"","","","","","audio-button-response","60","149244","0.0-10.0-2.14","https://mcdermottlab.mit.edu/mturk_stimuli/bjmedina/global-music-2025-n_80/sequences/isi_16/len120/seq020_len120_s10_isi-1p0_0p0_16p0.json","10.72","true","3sjyer6td42","","3061","https://mcdermottlab.mit.edu/mturk_stimuli/bjmedina/global-music-2025-n_80/mem_stim_27.wav","3","main","","","false","mem_stim_27.wav","false","-1","","1","correct_rejection"
"","","","","","html-keyboard-response","61","149299","0.0-10.0-1.15","https://mcdermottlab.mit.edu/mturk_stimuli/bjmedina/global-music-2025-n_80/sequences/isi_16/len120/seq020_len120_s10_isi-1p0_0p0_16p0.json","10.72","true","3sjyer6td42","","null","<span style=""font-size: 40px"">+</span>","null","","","","","","","","","",""
"","","","","","audio-button-response","62","152226","0.0-10.0-2.15","https://mcdermottlab.mit.edu/mturk_stimuli/bjmedina/global-music-2025-n_80/sequences/isi_16/len120/seq020_len120_s10_isi-1p0_0p0_16p0.json","10.72","true","3sjyer6td42","","2629","https://mcdermottlab.mit.edu/mturk_stimuli/bjmedina/global-music-2025-n_80/mem_stim_72.wav","3","main","","","false","mem_stim_72.wav","false","-1","","1","correct_rejection"
"","","","","","html-keyboard-response","63","152280","0.0-10.0-1.16","https://mcdermottlab.mit.edu/mturk_stimuli/bjmedina/global-music-2025-n_80/sequences/isi_16/len120/seq020_len120_s10_isi-1p0_0p0_16p0.json","10.72","true","3sjyer6td42","","null","<span style=""font-size: 40px"">+</span>","null","","","","","","","","","",""
"","","","","","audio-button-response","64","156260","0.0-10.0-2.16","https://mcdermottlab.mit.edu/mturk_stimuli/bjmedina/global-music-2025-n_80/sequences/isi_16/len120/seq020_len120_s10_isi-1p0_0p0_16p0.json","10.72","true","3sjyer6td42","","3680","https://mcdermottlab.mit.edu/mturk_stimuli/bjmedina/global-music-2025-n_80/mem_stim_21.wav","1","main","","","false","mem_stim_21.wav","false","-1","","0","false_alarm"
"","","","","","html-keyboard-response","65","156317","0.0-10.0-1.17","https://mcdermottlab.mit.edu/mturk_stimuli/bjmedina/global-music-2025-n_80/sequences/isi_16/len120/seq020_len120_s10_isi-1p0_0p0_16p0.json","10.72","true","3sjyer6td42","","null","<span style=""font-size: 40px"">+</span>","null","","","","","","","","","",""
"","","","","","audio-button-response","66","160976","0.0-10.0-2.17","https://mcdermottlab.mit.edu/mturk_stimuli/bjmedina/global-music-2025-n_80/sequences/isi_16/len120/seq020_len120_s10_isi-1p0_0p0_16p0.json","10.72","true","3sjyer6td42","","4368","https://mcdermottlab.mit.edu/mturk_stimuli/bjmedina/global-music-2025-n_80/mem_stim_33.wav","1","main","","","false","mem_stim_33.wav","false","-1","","0","false_alarm"
"","","","","","html-keyboard-response","67","161033","0.0-10.0-1.18","https://mcdermottlab.mit.edu/mturk_stimuli/bjmedina/global-music-2025-n_80/sequences/isi_16/len120/seq020_len120_s10_isi-1p0_0p0_16p0.json","10.72","true","3sjyer6td42","","null","<span style=""font-size: 40px"">+</span>","null","","","","","","","","","",""
"","","","","","audio-button-response","68","164427","0.0-10.0-2.18","https://mcdermottlab.mit.edu/mturk_stimuli/bjmedina/global-music-2025-n_80/sequences/isi_16/len120/seq020_len120_s10_isi-1p0_0p0_16p0.json","10.72","true","3sjyer6td42","","3099","https://mcdermottlab.mit.edu/mturk_stimuli/bjmedina/global-music-2025-n_80/mem_stim_30.wav","3","main","","","false","mem_stim_30.wav","false","-1","","1","correct_rejection"
"","","","","","html-keyboard-response","69","164483","0.0-10.0-1.19","https://mcdermottlab.mit.edu/mturk_stimuli/bjmedina/global-music-2025-n_80/sequences/isi_16/len120/seq020_len120_s10_isi-1p0_0p0_16p0.json","10.72","true","3sjyer6td42","","null","<span style=""font-size: 40px"">+</span>","null","","","","","","","","","",""
"","","","","","audio-button-response","70","167643","0.0-10.0-2.19","https://mcdermottlab.mit.edu/mturk_stimuli/bjmedina/global-music-2025-n_80/sequences/isi_16/len120/seq020_len120_s10_isi-1p0_0p0_16p0.json","10.72","true","3sjyer6td42","","2853","https://mcdermottlab.mit.edu/mturk_stimuli/bjmedina/global-music-2025-n_80/mem_stim_74.wav","1","main","","","false","mem_stim_74.wav","false","-1","","0","false_alarm"
"","","","","","html-keyboard-response","71","167700","0.0-10.0-1.20","https://mcdermottlab.mit.edu/mturk_stimuli/bjmedina/global-music-2025-n_80/sequences/isi_16/len120/seq020_len120_s10_isi-1p0_0p0_16p0.json","10.72","true","3sjyer6td42","","null","<span style=""font-size: 40px"">+</span>","null","","","","","","","","","",""
"","","","","","audio-button-response","72","171143","0.0-10.0-2.20","https://mcdermottlab.mit.edu/mturk_stimuli/bjmedina/global-music-2025-n_80/sequences/isi_16/len120/seq020_len120_s10_isi-1p0_0p0_16p0.json","10.72","true","3sjyer6td42","","3152","https://mcdermottlab.mit.edu/mturk_stimuli/bjmedina/global-music-2025-n_80/mem_stim_36.wav","2","main","","","false","mem_stim_36.wav","false","-1","","1","correct_rejection"
"","","","","","html-keyboard-response","73","171200","0.0-10.0-1.21","https://mcdermottlab.mit.edu/mturk_stimuli/bjmedina/global-music-2025-n_80/sequences/isi_16/len120/seq020_len120_s10_isi-1p0_0p0_16p0.json","10.72","true","3sjyer6td42","","null","<span style=""font-size: 40px"">+</span>","null","","","","","","","","","",""
"","","","","","audio-button-response","74","174010","0.0-10.0-2.21","https://mcdermottlab.mit.edu/mturk_stimuli/bjmedina/global-music-2025-n_80/sequences/isi_16/len120/seq020_len120_s10_isi-1p0_0p0_16p0.json","10.72","true","3sjyer6td42","","2517","https://mcdermottlab.mit.edu/mturk_stimuli/bjmedina/global-music-2025-n_80/mem_stim_40.wav","3","main","","","false","mem_stim_40.wav","false","-1","","1","correct_rejection"
"","","","","","html-keyboard-response","75","174067","0.0-10.0-1.22","https://mcdermottlab.mit.edu/mturk_stimuli/bjmedina/global-music-2025-n_80/sequences/isi_16/len120/seq020_len120_s10_isi-1p0_0p0_16p0.json","10.72","true","3sjyer6td42","","null","<span style=""font-size: 40px"">+</span>","null","","","","","","","","","",""
"","","","","","audio-button-response","76","177027","0.0-10.0-2.22","https://mcdermottlab.mit.edu/mturk_stimuli/bjmedina/global-music-2025-n_80/sequences/isi_16/len120/seq020_len120_s10_isi-1p0_0p0_16p0.json","10.72","true","3sjyer6td42","","2656","https://mcdermottlab.mit.edu/mturk_stimuli/bjmedina/global-music-2025-n_80/mem_stim_34.wav","3","main","","","false","mem_stim_34.wav","false","-1","","1","correct_rejection"
"","","","","","html-keyboard-response","77","177084","0.0-10.0-1.23","https://mcdermottlab.mit.edu/mturk_stimuli/bjmedina/global-music-2025-n_80/sequences/isi_16/len120/seq020_len120_s10_isi-1p0_0p0_16p0.json","10.72","true","3sjyer6td42","","null","<span style=""font-size: 40px"">+</span>","null","","","","","","","","","",""
"","","","","","audio-button-response","78","179960","0.0-10.0-2.23","https://mcdermottlab.mit.edu/mturk_stimuli/bjmedina/global-music-2025-n_80/sequences/isi_16/len120/seq020_len120_s10_isi-1p0_0p0_16p0.json","10.72","true","3sjyer6td42","","2576","https://mcdermottlab.mit.edu/mturk_stimuli/bjmedina/global-music-2025-n_80/mem_stim_66.wav","3","main","","","false","mem_stim_66.wav","false","-1","","1","correct_rejection"
"","","","","","html-keyboard-response","79","180018","0.0-10.0-1.24","https://mcdermottlab.mit.edu/mturk_stimuli/bjmedina/global-music-2025-n_80/sequences/isi_16/len120/seq020_len120_s10_isi-1p0_0p0_16p0.json","10.72","true","3sjyer6td42","","null","<span style=""font-size: 40px"">+</span>","null","","","","","","","","","",""
"","","","","","audio-button-response","80","182643","0.0-10.0-2.24","https://mcdermottlab.mit.edu/mturk_stimuli/bjmedina/global-music-2025-n_80/sequences/isi_16/len120/seq020_len120_s10_isi-1p0_0p0_16p0.json","10.72","true","3sjyer6td42","","2624","https://mcdermottlab.mit.edu/mturk_stimuli/bjmedina/global-music-2025-n_80/mem_stim_63.wav","3","main","","","true","mem_stim_63.wav","false","16","","0","miss"
"","","","","","html-keyboard-response","81","182700","0.0-10.0-1.25","https://mcdermottlab.mit.edu/mturk_stimuli/bjmedina/global-music-2025-n_80/sequences/isi_16/len120/seq020_len120_s10_isi-1p0_0p0_16p0.json","10.72","true","3sjyer6td42","","null","<span style=""font-size: 40px"">+</span>","null","","","","","","","","","",""
"","","","","","audio-button-response","82","187243","0.0-10.0-2.25","https://mcdermottlab.mit.edu/mturk_stimuli/bjmedina/global-music-2025-n_80/sequences/isi_16/len120/seq020_len120_s10_isi-1p0_0p0_16p0.json","10.72","true","3sjyer6td42","","4219","https://mcdermottlab.mit.edu/mturk_stimuli/bjmedina/global-music-2025-n_80/mem_stim_1.wav","0","main","","","false","mem_stim_1.wav","false","-1","","1","correct_rejection"
"","","","","","html-keyboard-response","83","187299","0.0-10.0-1.26","https://mcdermottlab.mit.edu/mturk_stimuli/bjmedina/global-music-2025-n_80/sequences/isi_16/len120/seq020_len120_s10_isi-1p0_0p0_16p0.json","10.72","true","3sjyer6td42","","null","<span style=""font-size: 40px"">+</span>","null","","","","","","","","","",""
"","","","","","audio-button-response","84","189792","0.0-10.0-2.26","https://mcdermottlab.mit.edu/mturk_stimuli/bjmedina/global-music-2025-n_80/sequences/isi_16/len120/seq020_len120_s10_isi-1p0_0p0_16p0.json","10.72","true","3sjyer6td42","","2491","https://mcdermottlab.mit.edu/mturk_stimuli/bjmedina/global-music-2025-n_80/mem_stim_1.wav","0","main","","","true","mem_stim_1.wav","true","0","","0","miss"
"","","","","","html-keyboard-response","85","189849","0.0-10.0-1.27","https://mcdermottlab.mit.edu/mturk_stimuli/bjmedina/global-music-2025-n_80/sequences/isi_16/len120/seq020_len120_s10_isi-1p0_0p0_16p0.json","10.72","true","3sjyer6td42","","null","<span style=""font-size: 40px"">+</span>","null","","","","","","","","","",""
"","","","","","audio-button-response","86","196809","0.0-10.0-2.27","https://mcdermottlab.mit.edu/mturk_stimuli/bjmedina/global-music-2025-n_80/sequences/isi_16/len120/seq020_len120_s10_isi-1p0_0p0_16p0.json","10.72","true","3sjyer6td42","","6651","https://mcdermottlab.mit.edu/mturk_stimuli/bjmedina/global-music-2025-n_80/mem_stim_10.wav","1","main","","","false","mem_stim_10.wav","false","-1","","0","false_alarm"
"","","","","","html-keyboard-response","87","196867","0.0-10.0-1.28","https://mcdermottlab.mit.edu/mturk_stimuli/bjmedina/global-music-2025-n_80/sequences/isi_16/len120/seq020_len120_s10_isi-1p0_0p0_16p0.json","10.72","true","3sjyer6td42","","null","<span style=""font-size: 40px"">+</span>","null","","","","","","","","","",""
"","","","","","audio-button-response","88","200310","0.0-10.0-2.28","https://mcdermottlab.mit.edu/mturk_stimuli/bjmedina/global-music-2025-n_80/sequences/isi_16/len120/seq020_len120_s10_isi-1p0_0p0_16p0.json","10.72","true","3sjyer6td42","","2928","https://mcdermottlab.mit.edu/mturk_stimuli/bjmedina/global-music-2025-n_80/mem_stim_0.wav","3","main","","","false","mem_stim_0.wav","false","-1","","1","correct_rejection"
"","","","","","html-keyboard-response","89","200367","0.0-10.0-1.29","https://mcdermottlab.mit.edu/mturk_stimuli/bjmedina/global-music-2025-n_80/sequences/isi_16/len120/seq020_len120_s10_isi-1p0_0p0_16p0.json","10.72","true","3sjyer6td42","","null","<span style=""font-size: 40px"">+</span>","null","","","","","","","","","",""
"","","","","","audio-button-response","90","203910","0.0-10.0-2.29","https://mcdermottlab.mit.edu/mturk_stimuli/bjmedina/global-music-2025-n_80/sequences/isi_16/len120/seq020_len120_s10_isi-1p0_0p0_16p0.json","10.72","true","3sjyer6td42","","3248","https://mcdermottlab.mit.edu/mturk_stimuli/bjmedina/global-music-2025-n_80/mem_stim_48.wav","2","main","","","false","mem_stim_48.wav","false","-1","","1","correct_rejection"
"","","","","","html-keyboard-response","91","203968","0.0-10.0-1.30","https://mcdermottlab.mit.edu/mturk_stimuli/bjmedina/global-music-2025-n_80/sequences/isi_16/len120/seq020_len120_s10_isi-1p0_0p0_16p0.json","10.72","true","3sjyer6td42","","null","<span style=""font-size: 40px"">+</span>","null","","","","","","","","","",""
"","","","","","audio-button-response","92","208059","0.0-10.0-2.30","https://mcdermottlab.mit.edu/mturk_stimuli/bjmedina/global-music-2025-n_80/sequences/isi_16/len120/seq020_len120_s10_isi-1p0_0p0_16p0.json","10.72","true","3sjyer6td42","","3792","https://mcdermottlab.mit.edu/mturk_stimuli/bjmedina/global-music-2025-n_80/mem_stim_14.wav","2","main","","","false","mem_stim_14.wav","false","-1","","1","correct_rejection"
"","","","","","html-keyboard-response","93","208116","0.0-10.0-1.31","https://mcdermottlab.mit.edu/mturk_stimuli/bjmedina/global-music-2025-n_80/sequences/isi_16/len120/seq020_len120_s10_isi-1p0_0p0_16p0.json","10.72","true","3sjyer6td42","","null","<span style=""font-size: 40px"">+</span>","null","","","","","","","","","",""
"","","","","","audio-button-response","94","210776","0.0-10.0-2.31","https://mcdermottlab.mit.edu/mturk_stimuli/bjmedina/global-music-2025-n_80/sequences/isi_16/len120/seq020_len120_s10_isi-1p0_0p0_16p0.json","10.72","true","3sjyer6td42","","2661","https://mcdermottlab.mit.edu/mturk_stimuli/bjmedina/global-music-2025-n_80/mem_stim_27.wav","3","main","","","true","mem_stim_27.wav","false","16","","0","miss"
"","","","","","html-keyboard-response","95","210833","0.0-10.0-1.32","https://mcdermottlab.mit.edu/mturk_stimuli/bjmedina/global-music-2025-n_80/sequences/isi_16/len120/seq020_len120_s10_isi-1p0_0p0_16p0.json","10.72","true","3sjyer6td42","","null","<span style=""font-size: 40px"">+</span>","null","","","","","","","","","",""
"","","","","","audio-button-response","96","215893","0.0-10.0-2.32","https://mcdermottlab.mit.edu/mturk_stimuli/bjmedina/global-music-2025-n_80/sequences/isi_16/len120/seq020_len120_s10_isi-1p0_0p0_16p0.json","10.72","true","3sjyer6td42","","4720","https://mcdermottlab.mit.edu/mturk_stimuli/bjmedina/global-music-2025-n_80/mem_stim_53.wav","2","main","","","false","mem_stim_53.wav","false","-1","","1","correct_rejection"
"","","","","","html-keyboard-response","97","215950","0.0-10.0-1.33","https://mcdermottlab.mit.edu/mturk_stimuli/bjmedina/global-music-2025-n_80/sequences/isi_16/len120/seq020_len120_s10_isi-1p0_0p0_16p0.json","10.72","true","3sjyer6td42","","null","<span style=""font-size: 40px"">+</span>","null","","","","","","","","","",""
"","","","","","audio-button-response","98","219209","0.0-10.0-2.33","https://mcdermottlab.mit.edu/mturk_stimuli/bjmedina/global-music-2025-n_80/sequences/isi_16/len120/seq020_len120_s10_isi-1p0_0p0_16p0.json","10.72","true","3sjyer6td42","","3259","https://mcdermottlab.mit.edu/mturk_stimuli/bjmedina/global-music-2025-n_80/mem_stim_21.wav","1","main","","","true","mem_stim_21.wav","false","16","","1","hit"
"","","","","","html-keyboard-response","99","219265","0.0-10.0-1.34","https://mcdermottlab.mit.edu/mturk_stimuli/bjmedina/global-music-2025-n_80/sequences/isi_16/len120/seq020_len120_s10_isi-1p0_0p0_16p0.json","10.72","true","3sjyer6td42","","null","<span style=""font-size: 40px"">+</span>","null","","","","","","","","","",""
"","","","","","audio-button-response","100","221876","0.0-10.0-2.34","https://mcdermottlab.mit.edu/mturk_stimuli/bjmedina/global-music-2025-n_80/sequences/isi_16/len120/seq020_len120_s10_isi-1p0_0p0_16p0.json","10.72","true","3sjyer6td42","","2608","https://mcdermottlab.mit.edu/mturk_stimuli/bjmedina/global-music-2025-n_80/mem_stim_33.wav","3","main","","","true","mem_stim_33.wav","false","16","","0","miss"
"","","","","","html-keyboard-response","101","221933","0.0-10.0-1.35","https://mcdermottlab.mit.edu/mturk_stimuli/bjmedina/global-music-2025-n_80/sequences/isi_16/len120/seq020_len120_s10_isi-1p0_0p0_16p0.json","10.72","true","3sjyer6td42","","null","<span style=""font-size: 40px"">+</span>","null","","","","","","","","","",""
"","","","","","audio-button-response","102","224560","0.0-10.0-2.35","https://mcdermottlab.mit.edu/mturk_stimuli/bjmedina/global-music-2025-n_80/sequences/isi_16/len120/seq020_len120_s10_isi-1p0_0p0_16p0.json","10.72","true","3sjyer6td42","","2624","https://mcdermottlab.mit.edu/mturk_stimuli/bjmedina/global-music-2025-n_80/mem_stim_30.wav","3","main","","","true","mem_stim_30.wav","false","16","","0","miss"
"","","","","","html-keyboard-response","103","224618","0.0-10.0-1.36","https://mcdermottlab.mit.edu/mturk_stimuli/bjmedina/global-music-2025-n_80/sequences/isi_16/len120/seq020_len120_s10_isi-1p0_0p0_16p0.json","10.72","true","3sjyer6td42","","null","<span style=""font-size: 40px"">+</span>","null","","","","","","","","","",""
"","","","","","audio-button-response","104","228993","0.0-10.0-2.36","https://mcdermottlab.mit.edu/mturk_stimuli/bjmedina/global-music-2025-n_80/sequences/isi_16/len120/seq020_len120_s10_isi-1p0_0p0_16p0.json","10.72","true","3sjyer6td42","","4379","https://mcdermottlab.mit.edu/mturk_stimuli/bjmedina/global-music-2025-n_80/mem_stim_74.wav","3","main","","","true","mem_stim_74.wav","false","16","","0","miss"
"","","","","","html-keyboard-response","105","229050","0.0-10.0-1.37","https://mcdermottlab.mit.edu/mturk_stimuli/bjmedina/global-music-2025-n_80/sequences/isi_16/len120/seq020_len120_s10_isi-1p0_0p0_16p0.json","10.72","true","3sjyer6td42","","null","<span style=""font-size: 40px"">+</span>","null","","","","","","","","","",""
"","","","","","audio-button-response","106","231860","0.0-10.0-2.37","https://mcdermottlab.mit.edu/mturk_stimuli/bjmedina/global-music-2025-n_80/sequences/isi_16/len120/seq020_len120_s10_isi-1p0_0p0_16p0.json","10.72","true","3sjyer6td42","","2805","https://mcdermottlab.mit.edu/mturk_stimuli/bjmedina/global-music-2025-n_80/mem_stim_36.wav","3","main","","","true","mem_stim_36.wav","false","16","","0","miss"
"","","","","","html-keyboard-response","107","231918","0.0-10.0-1.38","https://mcdermottlab.mit.edu/mturk_stimuli/bjmedina/global-music-2025-n_80/sequences/isi_16/len120/seq020_len120_s10_isi-1p0_0p0_16p0.json","10.72","true","3sjyer6td42","","null","<span style=""font-size: 40px"">+</span>","null","","","","","","","","","",""
"","","","","","audio-button-response","108","234593","0.0-10.0-2.38","https://mcdermottlab.mit.edu/mturk_stimuli/bjmedina/global-music-2025-n_80/sequences/isi_16/len120/seq020_len120_s10_isi-1p0_0p0_16p0.json","10.72","true","3sjyer6td42","","2672","https://mcdermottlab.mit.edu/mturk_stimuli/bjmedina/global-music-2025-n_80/mem_stim_40.wav","3","main","","","true","mem_stim_40.wav","false","16","","0","miss"
"","","","","","html-keyboard-response","109","234650","0.0-10.0-1.39","https://mcdermottlab.mit.edu/mturk_stimuli/bjmedina/global-music-2025-n_80/sequences/isi_16/len120/seq020_len120_s10_isi-1p0_0p0_16p0.json","10.72","true","3sjyer6td42","","null","<span style=""font-size: 40px"">+</span>","null","","","","","","","","","",""
"","","","","","audio-button-response","110","237209","0.0-10.0-2.39","https://mcdermottlab.mit.edu/mturk_stimuli/bjmedina/global-music-2025-n_80/sequences/isi_16/len120/seq020_len120_s10_isi-1p0_0p0_16p0.json","10.72","true","3sjyer6td42","","2555","https://mcdermottlab.mit.edu/mturk_stimuli/bjmedina/global-music-2025-n_80/mem_stim_34.wav","3","main","","","true","mem_stim_34.wav","false","16","","0","miss"
"","","","","","html-keyboard-response","111","237267","0.0-10.0-1.40","https://mcdermottlab.mit.edu/mturk_stimuli/bjmedina/global-music-2025-n_80/sequences/isi_16/len120/seq020_len120_s10_isi-1p0_0p0_16p0.json","10.72","true","3sjyer6td42","","null","<span style=""font-size: 40px"">+</span>","null","","","","","","","","","",""
"","","","","","audio-button-response","112","241843","0.0-10.0-2.40","https://mcdermottlab.mit.edu/mturk_stimuli/bjmedina/global-music-2025-n_80/sequences/isi_16/len120/seq020_len120_s10_isi-1p0_0p0_16p0.json","10.72","true","3sjyer6td42","","4235","https://mcdermottlab.mit.edu/mturk_stimuli/bjmedina/global-music-2025-n_80/mem_stim_64.wav","3","main","","","false","mem_stim_64.wav","false","-1","","1","correct_rejection"
"","","","","","html-keyboard-response","113","241901","0.0-10.0-1.41","https://mcdermottlab.mit.edu/mturk_stimuli/bjmedina/global-music-2025-n_80/sequences/isi_16/len120/seq020_len120_s10_isi-1p0_0p0_16p0.json","10.72","true","3sjyer6td42","","null","<span style=""font-size: 40px"">+</span>","null","","","","","","","","","",""
"","","","","","audio-button-response","114","244876","0.0-10.0-2.41","https://mcdermottlab.mit.edu/mturk_stimuli/bjmedina/global-music-2025-n_80/sequences/isi_16/len120/seq020_len120_s10_isi-1p0_0p0_16p0.json","10.72","true","3sjyer6td42","","2677","https://mcdermottlab.mit.edu/mturk_stimuli/bjmedina/global-music-2025-n_80/mem_stim_73.wav","2","main","","","false","mem_stim_73.wav","false","-1","","1","correct_rejection"
"","","","","","html-keyboard-response","115","244934","0.0-10.0-1.42","https://mcdermottlab.mit.edu/mturk_stimuli/bjmedina/global-music-2025-n_80/sequences/isi_16/len120/seq020_len120_s10_isi-1p0_0p0_16p0.json","10.72","true","3sjyer6td42","","null","<span style=""font-size: 40px"">+</span>","null","","","","","","","","","",""
"","","","","","audio-button-response","116","248841","0.0-10.0-2.42","https://mcdermottlab.mit.edu/mturk_stimuli/bjmedina/global-music-2025-n_80/sequences/isi_16/len120/seq020_len120_s10_isi-1p0_0p0_16p0.json","10.72","true","3sjyer6td42","","3904","https://mcdermottlab.mit.edu/mturk_stimuli/bjmedina/global-music-2025-n_80/mem_stim_73.wav","3","main","","","true","mem_stim_73.wav","true","0","","0","miss"
"","","","","","html-keyboard-response","117","248899","0.0-10.0-1.43","https://mcdermottlab.mit.edu/mturk_stimuli/bjmedina/global-music-2025-n_80/sequences/isi_16/len120/seq020_len120_s10_isi-1p0_0p0_16p0.json","10.72","true","3sjyer6td42","","null","<span style=""font-size: 40px"">+</span>","null","","","","","","","","","",""
"","","","","","audio-button-response","118","252793","0.0-10.0-2.43","https://mcdermottlab.mit.edu/mturk_stimuli/bjmedina/global-music-2025-n_80/sequences/isi_16/len120/seq020_len120_s10_isi-1p0_0p0_16p0.json","10.72","true","3sjyer6td42","","3563","https://mcdermottlab.mit.edu/mturk_stimuli/bjmedina/global-music-2025-n_80/mem_stim_39.wav","2","main","","","false","mem_stim_39.wav","false","-1","","1","correct_rejection"
"","","","","","html-keyboard-response","119","252850","0.0-10.0-1.44","https://mcdermottlab.mit.edu/mturk_stimuli/bjmedina/global-music-2025-n_80/sequences/isi_16/len120/seq020_len120_s10_isi-1p0_0p0_16p0.json","10.72","true","3sjyer6td42","","null","<span style=""font-size: 40px"">+</span>","null","","","","","","","","","",""
"","","","","","audio-button-response","120","255559","0.0-10.0-2.44","https://mcdermottlab.mit.edu/mturk_stimuli/bjmedina/global-music-2025-n_80/sequences/isi_16/len120/seq020_len120_s10_isi-1p0_0p0_16p0.json","10.72","true","3sjyer6td42","","2709","https://mcdermottlab.mit.edu/mturk_stimuli/bjmedina/global-music-2025-n_80/mem_stim_10.wav","2","main","","","true","mem_stim_10.wav","false","16","","0","miss"
"","","","","","html-keyboard-response","121","255618","0.0-10.0-1.45","https://mcdermottlab.mit.edu/mturk_stimuli/bjmedina/global-music-2025-n_80/sequences/isi_16/len120/seq020_len120_s10_isi-1p0_0p0_16p0.json","10.72","true","3sjyer6td42","","null","<span style=""font-size: 40px"">+</span>","null","","","","","","","","","",""
"","","","","","audio-button-response","122","261160","0.0-10.0-2.45","https://mcdermottlab.mit.edu/mturk_stimuli/bjmedina/global-music-2025-n_80/sequences/isi_16/len120/seq020_len120_s10_isi-1p0_0p0_16p0.json","10.72","true","3sjyer6td42","","5243","https://mcdermottlab.mit.edu/mturk_stimuli/bjmedina/global-music-2025-n_80/mem_stim_68.wav","1","main","","","false","mem_stim_68.wav","false","-1","","0","false_alarm"
"","","","","","html-keyboard-response","123","261218","0.0-10.0-1.46","https://mcdermottlab.mit.edu/mturk_stimuli/bjmedina/global-music-2025-n_80/sequences/isi_16/len120/seq020_len120_s10_isi-1p0_0p0_16p0.json","10.72","true","3sjyer6td42","","null","<span style=""font-size: 40px"">+</span>","null","","","","","","","","","",""
"","","","","","audio-button-response","124","264309","0.0-10.0-2.46","https://mcdermottlab.mit.edu/mturk_stimuli/bjmedina/global-music-2025-n_80/sequences/isi_16/len120/seq020_len120_s10_isi-1p0_0p0_16p0.json","10.72","true","3sjyer6td42","","3088","https://mcdermottlab.mit.edu/mturk_stimuli/bjmedina/global-music-2025-n_80/mem_stim_48.wav","3","main","","","true","mem_stim_48.wav","false","16","","0","miss"
"","","","","","html-keyboard-response","125","264368","0.0-10.0-1.47","https://mcdermottlab.mit.edu/mturk_stimuli/bjmedina/global-music-2025-n_80/sequences/isi_16/len120/seq020_len120_s10_isi-1p0_0p0_16p0.json","10.72","true","3sjyer6td42","","null","<span style=""font-size: 40px"">+</span>","null","","","","","","","","","",""
"","","","","","audio-button-response","126","266992","0.0-10.0-2.47","https://mcdermottlab.mit.edu/mturk_stimuli/bjmedina/global-music-2025-n_80/sequences/isi_16/len120/seq020_len120_s10_isi-1p0_0p0_16p0.json","10.72","true","3sjyer6td42","","2619","https://mcdermottlab.mit.edu/mturk_stimuli/bjmedina/global-music-2025-n_80/mem_stim_14.wav","3","main","","","true","mem_stim_14.wav","false","16","","0","miss"
"","","","","","html-keyboard-response","127","267051","0.0-10.0-1.48","https://mcdermottlab.mit.edu/mturk_stimuli/bjmedina/global-music-2025-n_80/sequences/isi_16/len120/seq020_len120_s10_isi-1p0_0p0_16p0.json","10.72","true","3sjyer6td42","","null","<span style=""font-size: 40px"">+</span>","null","","","","","","","","","",""
"","","","","","audio-button-response","128","271026","0.0-10.0-2.48","https://mcdermottlab.mit.edu/mturk_stimuli/bjmedina/global-music-2025-n_80/sequences/isi_16/len120/seq020_len120_s10_isi-1p0_0p0_16p0.json","10.72","true","3sjyer6td42","","3643","https://mcdermottlab.mit.edu/mturk_stimuli/bjmedina/global-music-2025-n_80/mem_stim_38.wav","2","main","","","false","mem_stim_38.wav","false","-1","","1","correct_rejection"
"","","","","","html-keyboard-response","129","271084","0.0-10.0-1.49","https://mcdermottlab.mit.edu/mturk_stimuli/bjmedina/global-music-2025-n_80/sequences/isi_16/len120/seq020_len120_s10_isi-1p0_0p0_16p0.json","10.72","true","3sjyer6td42","","null","<span style=""font-size: 40px"">+</span>","null","","","","","","","","","",""
"","","","","","audio-button-response","130","273909","0.0-10.0-2.49","https://mcdermottlab.mit.edu/mturk_stimuli/bjmedina/global-music-2025-n_80/sequences/isi_16/len120/seq020_len120_s10_isi-1p0_0p0_16p0.json","10.72","true","3sjyer6td42","","2821","https://mcdermottlab.mit.edu/mturk_stimuli/bjmedina/global-music-2025-n_80/mem_stim_53.wav","2","main","","","true","mem_stim_53.wav","false","16","","0","miss"
"","","","","","html-keyboard-response","131","273965","0.0-10.0-1.50","https://mcdermottlab.mit.edu/mturk_stimuli/bjmedina/global-music-2025-n_80/sequences/isi_16/len120/seq020_len120_s10_isi-1p0_0p0_16p0.json","10.72","true","3sjyer6td42","","null","<span style=""font-size: 40px"">+</span>","null","","","","","","","","","",""
"","","","","","audio-button-response","132","276910","0.0-10.0-2.50","https://mcdermottlab.mit.edu/mturk_stimuli/bjmedina/global-music-2025-n_80/sequences/isi_16/len120/seq020_len120_s10_isi-1p0_0p0_16p0.json","10.72","true","3sjyer6td42","","2640","https://mcdermottlab.mit.edu/mturk_stimuli/bjmedina/global-music-2025-n_80/mem_stim_19.wav","3","main","","","false","mem_stim_19.wav","false","-1","","1","correct_rejection"
"","","","","","html-keyboard-response","133","276968","0.0-10.0-1.51","https://mcdermottlab.mit.edu/mturk_stimuli/bjmedina/global-music-2025-n_80/sequences/isi_16/len120/seq020_len120_s10_isi-1p0_0p0_16p0.json","10.72","true","3sjyer6td42","","null","<span style=""font-size: 40px"">+</span>","null","","","","","","","","","",""
"","","","","","audio-button-response","134","281242","0.0-10.0-2.51","https://mcdermottlab.mit.edu/mturk_stimuli/bjmedina/global-music-2025-n_80/sequences/isi_16/len120/seq020_len120_s10_isi-1p0_0p0_16p0.json","10.72","true","3sjyer6td42","","3979","https://mcdermottlab.mit.edu/mturk_stimuli/bjmedina/global-music-2025-n_80/mem_stim_54.wav","2","main","","","false","mem_stim_54.wav","false","-1","","1","correct_rejection"
"","","","","","html-keyboard-response","135","281301","0.0-10.0-1.52","https://mcdermottlab.mit.edu/mturk_stimuli/bjmedina/global-music-2025-n_80/sequences/isi_16/len120/seq020_len120_s10_isi-1p0_0p0_16p0.json","10.72","true","3sjyer6td42","","null","<span style=""font-size: 40px"">+</span>","null","","","","","","","","","",""
"","","","","","audio-button-response","136","283826","0.0-10.0-2.52","https://mcdermottlab.mit.edu/mturk_stimuli/bjmedina/global-music-2025-n_80/sequences/isi_16/len120/seq020_len120_s10_isi-1p0_0p0_16p0.json","10.72","true","3sjyer6td42","","2523","https://mcdermottlab.mit.edu/mturk_stimuli/bjmedina/global-music-2025-n_80/mem_stim_54.wav","3","main","","","true","mem_stim_54.wav","true","0","","0","miss"
"","","","","","html-keyboard-response","137","283885","0.0-10.0-1.53","https://mcdermottlab.mit.edu/mturk_stimuli/bjmedina/global-music-2025-n_80/sequences/isi_16/len120/seq020_len120_s10_isi-1p0_0p0_16p0.json","10.72","true","3sjyer6td42","","null","<span style=""font-size: 40px"">+</span>","null","","","","","","","","","",""
"","","","","","audio-button-response","138","287192","0.0-10.0-2.53","https://mcdermottlab.mit.edu/mturk_stimuli/bjmedina/global-music-2025-n_80/sequences/isi_16/len120/seq020_len120_s10_isi-1p0_0p0_16p0.json","10.72","true","3sjyer6td42","","2960","https://mcdermottlab.mit.edu/mturk_stimuli/bjmedina/global-music-2025-n_80/mem_stim_32.wav","2","main","","","false","mem_stim_32.wav","false","-1","","1","correct_rejection"
"","","","","","html-keyboard-response","139","287249","0.0-10.0-1.54","https://mcdermottlab.mit.edu/mturk_stimuli/bjmedina/global-music-2025-n_80/sequences/isi_16/len120/seq020_len120_s10_isi-1p0_0p0_16p0.json","10.72","true","3sjyer6td42","","null","<span style=""font-size: 40px"">+</span>","null","","","","","","","","","",""
"","","","","","audio-button-response","140","290308","0.0-10.0-2.54","https://mcdermottlab.mit.edu/mturk_stimuli/bjmedina/global-music-2025-n_80/sequences/isi_16/len120/seq020_len120_s10_isi-1p0_0p0_16p0.json","10.72","true","3sjyer6td42","","2763","https://mcdermottlab.mit.edu/mturk_stimuli/bjmedina/global-music-2025-n_80/mem_stim_9.wav","3","main","","","false","mem_stim_9.wav","false","-1","","1","correct_rejection"
"","","","","","html-keyboard-response","141","290365","0.0-10.0-1.55","https://mcdermottlab.mit.edu/mturk_stimuli/bjmedina/global-music-2025-n_80/sequences/isi_16/len120/seq020_len120_s10_isi-1p0_0p0_16p0.json","10.72","true","3sjyer6td42","","null","<span style=""font-size: 40px"">+</span>","null","","","","","","","","","",""
"","","","","","audio-button-response","142","295259","0.0-10.0-2.55","https://mcdermottlab.mit.edu/mturk_stimuli/bjmedina/global-music-2025-n_80/sequences/isi_16/len120/seq020_len120_s10_isi-1p0_0p0_16p0.json","10.72","true","3sjyer6td42","","4587","https://mcdermottlab.mit.edu/mturk_stimuli/bjmedina/global-music-2025-n_80/mem_stim_61.wav","1","main","","","false","mem_stim_61.wav","false","-1","","0","false_alarm"
"","","","","","html-keyboard-response","143","295317","0.0-10.0-1.56","https://mcdermottlab.mit.edu/mturk_stimuli/bjmedina/global-music-2025-n_80/sequences/isi_16/len120/seq020_len120_s10_isi-1p0_0p0_16p0.json","10.72","true","3sjyer6td42","","null","<span style=""font-size: 40px"">+</span>","null","","","","","","","","","",""
"","","","","","audio-button-response","144","298976","0.0-10.0-2.56","https://mcdermottlab.mit.edu/mturk_stimuli/bjmedina/global-music-2025-n_80/sequences/isi_16/len120/seq020_len120_s10_isi-1p0_0p0_16p0.json","10.72","true","3sjyer6td42","","3653","https://mcdermottlab.mit.edu/mturk_stimuli/bjmedina/global-music-2025-n_80/mem_stim_61.wav","2","main","","","true","mem_stim_61.wav","true","0","","0","miss"
"","","","","","html-keyboard-response","145","299036","0.0-10.0-1.57","https://mcdermottlab.mit.edu/mturk_stimuli/bjmedina/global-music-2025-n_80/sequences/isi_16/len120/seq020_len120_s10_isi-1p0_0p0_16p0.json","10.72","true","3sjyer6td42","","null","<span style=""font-size: 40px"">+</span>","null","","","","","","","","","",""
"","","","","","audio-button-response","146","302260","0.0-10.0-2.57","https://mcdermottlab.mit.edu/mturk_stimuli/bjmedina/global-music-2025-n_80/sequences/isi_16/len120/seq020_len120_s10_isi-1p0_0p0_16p0.json","10.72","true","3sjyer6td42","","3221","https://mcdermottlab.mit.edu/mturk_stimuli/bjmedina/global-music-2025-n_80/mem_stim_64.wav","3","main","","","true","mem_stim_64.wav","false","16","","0","miss"
"","","","","","html-keyboard-response","147","302318","0.0-10.0-1.58","https://mcdermottlab.mit.edu/mturk_stimuli/bjmedina/global-music-2025-n_80/sequences/isi_16/len120/seq020_len120_s10_isi-1p0_0p0_16p0.json","10.72","true","3sjyer6td42","","null","<span style=""font-size: 40px"">+</span>","null","","","","","","","","","",""
"","","","","","audio-button-response","148","305225","0.0-10.0-2.58","https://mcdermottlab.mit.edu/mturk_stimuli/bjmedina/global-music-2025-n_80/sequences/isi_16/len120/seq020_len120_s10_isi-1p0_0p0_16p0.json","10.72","true","3sjyer6td42","","2549","https://mcdermottlab.mit.edu/mturk_stimuli/bjmedina/global-music-2025-n_80/mem_stim_5.wav","3","main","","","false","mem_stim_5.wav","false","-1","","1","correct_rejection"
"","","","","","html-keyboard-response","149","305284","0.0-10.0-1.59","https://mcdermottlab.mit.edu/mturk_stimuli/bjmedina/global-music-2025-n_80/sequences/isi_16/len120/seq020_len120_s10_isi-1p0_0p0_16p0.json","10.72","true","3sjyer6td42","","null","<span style=""font-size: 40px"">+</span>","null","","","","","","","","","",""
"","","","","","audio-button-response","150","308659","0.0-10.0-2.59","https://mcdermottlab.mit.edu/mturk_stimuli/bjmedina/global-music-2025-n_80/sequences/isi_16/len120/seq020_len120_s10_isi-1p0_0p0_16p0.json","10.72","true","3sjyer6td42","","3077","https://mcdermottlab.mit.edu/mturk_stimuli/bjmedina/global-music-2025-n_80/mem_stim_56.wav","3","main","","","false","mem_stim_56.wav","false","-1","","1","correct_rejection"
"","","","","","html-keyboard-response","151","308718","0.0-10.0-1.60","https://mcdermottlab.mit.edu/mturk_stimuli/bjmedina/global-music-2025-n_80/sequences/isi_16/len120/seq020_len120_s10_isi-1p0_0p0_16p0.json","10.72","true","3sjyer6td42","","null","<span style=""font-size: 40px"">+</span>","null","","","","","","","","","",""
"","","","","","audio-button-response","152","312626","0.0-10.0-2.60","https://mcdermottlab.mit.edu/mturk_stimuli/bjmedina/global-music-2025-n_80/sequences/isi_16/len120/seq020_len120_s10_isi-1p0_0p0_16p0.json","10.72","true","3sjyer6td42","","3611","https://mcdermottlab.mit.edu/mturk_stimuli/bjmedina/global-music-2025-n_80/mem_stim_69.wav","2","main","","","false","mem_stim_69.wav","false","-1","","1","correct_rejection"
"","","","","","html-keyboard-response","153","312685","0.0-10.0-1.61","https://mcdermottlab.mit.edu/mturk_stimuli/bjmedina/global-music-2025-n_80/sequences/isi_16/len120/seq020_len120_s10_isi-1p0_0p0_16p0.json","10.72","true","3sjyer6td42","","null","<span style=""font-size: 40px"">+</span>","null","","","","","","","","","",""
"","","","","","audio-button-response","154","316059","0.0-10.0-2.61","https://mcdermottlab.mit.edu/mturk_stimuli/bjmedina/global-music-2025-n_80/sequences/isi_16/len120/seq020_len120_s10_isi-1p0_0p0_16p0.json","10.72","true","3sjyer6td42","","3083","https://mcdermottlab.mit.edu/mturk_stimuli/bjmedina/global-music-2025-n_80/mem_stim_15.wav","3","main","","","false","mem_stim_15.wav","false","-1","","1","correct_rejection"
"","","","","","html-keyboard-response","155","316119","0.0-10.0-1.62","https://mcdermottlab.mit.edu/mturk_stimuli/bjmedina/global-music-2025-n_80/sequences/isi_16/len120/seq020_len120_s10_isi-1p0_0p0_16p0.json","10.72","true","3sjyer6td42","","null","<span style=""font-size: 40px"">+</span>","null","","","","","","","","","",""
"","","","","","audio-button-response","156","318759","0.0-10.0-2.62","https://mcdermottlab.mit.edu/mturk_stimuli/bjmedina/global-music-2025-n_80/sequences/isi_16/len120/seq020_len120_s10_isi-1p0_0p0_16p0.json","10.72","true","3sjyer6td42","","2640","https://mcdermottlab.mit.edu/mturk_stimuli/bjmedina/global-music-2025-n_80/mem_stim_68.wav","3","main","","","true","mem_stim_68.wav","false","16","","0","miss"
"","","","","","html-keyboard-response","157","318818","0.0-10.0-1.63","https://mcdermottlab.mit.edu/mturk_stimuli/bjmedina/global-music-2025-n_80/sequences/isi_16/len120/seq020_len120_s10_isi-1p0_0p0_16p0.json","10.72","true","3sjyer6td42","","null","<span style=""font-size: 40px"">+</span>","null","","","","","","","","","",""
"","","","","","audio-button-response","158","322859","0.0-10.0-2.63","https://mcdermottlab.mit.edu/mturk_stimuli/bjmedina/global-music-2025-n_80/sequences/isi_16/len120/seq020_len120_s10_isi-1p0_0p0_16p0.json","10.72","true","3sjyer6td42","","3701","https://mcdermottlab.mit.edu/mturk_stimuli/bjmedina/global-music-2025-n_80/mem_stim_79.wav","3","main","","","false","mem_stim_79.wav","false","-1","","1","correct_rejection"
"","","","","","html-keyboard-response","159","322919","0.0-10.0-1.64","https://mcdermottlab.mit.edu/mturk_stimuli/bjmedina/global-music-2025-n_80/sequences/isi_16/len120/seq020_len120_s10_isi-1p0_0p0_16p0.json","10.72","true","3sjyer6td42","","null","<span style=""font-size: 40px"">+</span>","null","","","","","","","","","",""
"","","","","","audio-button-response","160","325592","0.0-10.0-2.64","https://mcdermottlab.mit.edu/mturk_stimuli/bjmedina/global-music-2025-n_80/sequences/isi_16/len120/seq020_len120_s10_isi-1p0_0p0_16p0.json","10.72","true","3sjyer6td42","","2672","https://mcdermottlab.mit.edu/mturk_stimuli/bjmedina/global-music-2025-n_80/mem_stim_79.wav","3","main","","","true","mem_stim_79.wav","true","0","","0","miss"
"","","","","","html-keyboard-response","161","325652","0.0-10.0-1.65","https://mcdermottlab.mit.edu/mturk_stimuli/bjmedina/global-music-2025-n_80/sequences/isi_16/len120/seq020_len120_s10_isi-1p0_0p0_16p0.json","10.72","true","3sjyer6td42","","null","<span style=""font-size: 40px"">+</span>","null","","","","","","","","","",""
"","","","","","audio-button-response","162","330208","0.0-10.0-2.65","https://mcdermottlab.mit.edu/mturk_stimuli/bjmedina/global-music-2025-n_80/sequences/isi_16/len120/seq020_len120_s10_isi-1p0_0p0_16p0.json","10.72","true","3sjyer6td42","","4256","https://mcdermottlab.mit.edu/mturk_stimuli/bjmedina/global-music-2025-n_80/mem_stim_46.wav","1","main","","","false","mem_stim_46.wav","false","-1","","0","false_alarm"
"","","","","","html-keyboard-response","163","330266","0.0-10.0-1.66","https://mcdermottlab.mit.edu/mturk_stimuli/bjmedina/global-music-2025-n_80/sequences/isi_16/len120/seq020_len120_s10_isi-1p0_0p0_16p0.json","10.72","true","3sjyer6td42","","null","<span style=""font-size: 40px"">+</span>","null","","","","","","","","","",""
"","","","","","audio-button-response","164","334926","0.0-10.0-2.66","https://mcdermottlab.mit.edu/mturk_stimuli/bjmedina/global-music-2025-n_80/sequences/isi_16/len120/seq020_len120_s10_isi-1p0_0p0_16p0.json","10.72","true","3sjyer6td42","","4368","https://mcdermottlab.mit.edu/mturk_stimuli/bjmedina/global-music-2025-n_80/mem_stim_25.wav","1","main","","","false","mem_stim_25.wav","false","-1","","0","false_alarm"
"","","","","","html-keyboard-response","165","334985","0.0-10.0-1.67","https://mcdermottlab.mit.edu/mturk_stimuli/bjmedina/global-music-2025-n_80/sequences/isi_16/len120/seq020_len120_s10_isi-1p0_0p0_16p0.json","10.72","true","3sjyer6td42","","null","<span style=""font-size: 40px"">+</span>","null","","","","","","","","","",""
"","","","","","audio-button-response","166","337809","0.0-10.0-2.67","https://mcdermottlab.mit.edu/mturk_stimuli/bjmedina/global-music-2025-n_80/sequences/isi_16/len120/seq020_len120_s10_isi-1p0_0p0_16p0.json","10.72","true","3sjyer6td42","","2539","https://mcdermottlab.mit.edu/mturk_stimuli/bjmedina/global-music-2025-n_80/mem_stim_71.wav","3","main","","","false","mem_stim_71.wav","false","-1","","1","correct_rejection"
"","","","","","html-keyboard-response","167","337869","0.0-10.0-1.68","https://mcdermottlab.mit.edu/mturk_stimuli/bjmedina/global-music-2025-n_80/sequences/isi_16/len120/seq020_len120_s10_isi-1p0_0p0_16p0.json","10.72","true","3sjyer6td42","","null","<span style=""font-size: 40px"">+</span>","null","","","","","","","","","",""
"","","","","","audio-button-response","168","341642","0.0-10.0-2.68","https://mcdermottlab.mit.edu/mturk_stimuli/bjmedina/global-music-2025-n_80/sequences/isi_16/len120/seq020_len120_s10_isi-1p0_0p0_16p0.json","10.72","true","3sjyer6td42","","3472","https://mcdermottlab.mit.edu/mturk_stimuli/bjmedina/global-music-2025-n_80/mem_stim_41.wav","1","main","","","false","mem_stim_41.wav","false","-1","","0","false_alarm"
"","","","","","html-keyboard-response","169","341701","0.0-10.0-1.69","https://mcdermottlab.mit.edu/mturk_stimuli/bjmedina/global-music-2025-n_80/sequences/isi_16/len120/seq020_len120_s10_isi-1p0_0p0_16p0.json","10.72","true","3sjyer6td42","","null","<span style=""font-size: 40px"">+</span>","null","","","","","","","","","",""
"","","","","","audio-button-response","170","344575","0.0-10.0-2.69","https://mcdermottlab.mit.edu/mturk_stimuli/bjmedina/global-music-2025-n_80/sequences/isi_16/len120/seq020_len120_s10_isi-1p0_0p0_16p0.json","10.72","true","3sjyer6td42","","2581","https://mcdermottlab.mit.edu/mturk_stimuli/bjmedina/global-music-2025-n_80/mem_stim_45.wav","3","main","","","false","mem_stim_45.wav","false","-1","","1","correct_rejection"
"","","","","","html-keyboard-response","171","344635","0.0-10.0-1.70","https://mcdermottlab.mit.edu/mturk_stimuli/bjmedina/global-music-2025-n_80/sequences/isi_16/len120/seq020_len120_s10_isi-1p0_0p0_16p0.json","10.72","true","3sjyer6td42","","null","<span style=""font-size: 40px"">+</span>","null","","","","","","","","","",""
"","","","","","audio-button-response","172","347242","0.0-10.0-2.70","https://mcdermottlab.mit.edu/mturk_stimuli/bjmedina/global-music-2025-n_80/sequences/isi_16/len120/seq020_len120_s10_isi-1p0_0p0_16p0.json","10.72","true","3sjyer6td42","","2603","https://mcdermottlab.mit.edu/mturk_stimuli/bjmedina/global-music-2025-n_80/mem_stim_32.wav","2","main","","","true","mem_stim_32.wav","false","16","","0","miss"
"","","","","","html-keyboard-response","173","347302","0.0-10.0-1.71","https://mcdermottlab.mit.edu/mturk_stimuli/bjmedina/global-music-2025-n_80/sequences/isi_16/len120/seq020_len120_s10_isi-1p0_0p0_16p0.json","10.72","true","3sjyer6td42","","null","<span style=""font-size: 40px"">+</span>","null","","","","","","","","","",""
"","","","","","audio-button-response","174","350709","0.0-10.0-2.71","https://mcdermottlab.mit.edu/mturk_stimuli/bjmedina/global-music-2025-n_80/sequences/isi_16/len120/seq020_len120_s10_isi-1p0_0p0_16p0.json","10.72","true","3sjyer6td42","","3061","https://mcdermottlab.mit.edu/mturk_stimuli/bjmedina/global-music-2025-n_80/mem_stim_58.wav","1","main","","","false","mem_stim_58.wav","false","-1","","0","false_alarm"
"","","","","","html-keyboard-response","175","350768","0.0-10.0-1.72","https://mcdermottlab.mit.edu/mturk_stimuli/bjmedina/global-music-2025-n_80/sequences/isi_16/len120/seq020_len120_s10_isi-1p0_0p0_16p0.json","10.72","true","3sjyer6td42","","null","<span style=""font-size: 40px"">+</span>","null","","","","","","","","","",""
"","","","","","audio-button-response","176","354808","0.0-10.0-2.72","https://mcdermottlab.mit.edu/mturk_stimuli/bjmedina/global-music-2025-n_80/sequences/isi_16/len120/seq020_len120_s10_isi-1p0_0p0_16p0.json","10.72","true","3sjyer6td42","","3744","https://mcdermottlab.mit.edu/mturk_stimuli/bjmedina/global-music-2025-n_80/mem_stim_57.wav","2","main","","","false","mem_stim_57.wav","false","-1","","1","correct_rejection"
"","","","","","html-keyboard-response","177","354867","0.0-10.0-1.73","https://mcdermottlab.mit.edu/mturk_stimuli/bjmedina/global-music-2025-n_80/sequences/isi_16/len120/seq020_len120_s10_isi-1p0_0p0_16p0.json","10.72","true","3sjyer6td42","","null","<span style=""font-size: 40px"">+</span>","null","","","","","","","","","",""
"","","","","","audio-button-response","178","358842","0.0-10.0-2.73","https://mcdermottlab.mit.edu/mturk_stimuli/bjmedina/global-music-2025-n_80/sequences/isi_16/len120/seq020_len120_s10_isi-1p0_0p0_16p0.json","10.72","true","3sjyer6td42","","3680","https://mcdermottlab.mit.edu/mturk_stimuli/bjmedina/global-music-2025-n_80/mem_stim_13.wav","3","main","","","false","mem_stim_13.wav","false","-1","","1","correct_rejection"
"","","","","","html-keyboard-response","179","358902","0.0-10.0-1.74","https://mcdermottlab.mit.edu/mturk_stimuli/bjmedina/global-music-2025-n_80/sequences/isi_16/len120/seq020_len120_s10_isi-1p0_0p0_16p0.json","10.72","true","3sjyer6td42","","null","<span style=""font-size: 40px"">+</span>","null","","","","","","","","","",""
"","","","","","audio-button-response","180","363375","0.0-10.0-2.74","https://mcdermottlab.mit.edu/mturk_stimuli/bjmedina/global-music-2025-n_80/sequences/isi_16/len120/seq020_len120_s10_isi-1p0_0p0_16p0.json","10.72","true","3sjyer6td42","","4171","https://mcdermottlab.mit.edu/mturk_stimuli/bjmedina/global-music-2025-n_80/mem_stim_23.wav","1","main","","","false","mem_stim_23.wav","false","-1","","0","false_alarm"
"","","","","","html-keyboard-response","181","363433","0.0-10.0-1.75","https://mcdermottlab.mit.edu/mturk_stimuli/bjmedina/global-music-2025-n_80/sequences/isi_16/len120/seq020_len120_s10_isi-1p0_0p0_16p0.json","10.72","true","3sjyer6td42","","null","<span style=""font-size: 40px"">+</span>","null","","","","","","","","","",""
"","","","","","audio-button-response","182","367159","0.0-10.0-2.75","https://mcdermottlab.mit.edu/mturk_stimuli/bjmedina/global-music-2025-n_80/sequences/isi_16/len120/seq020_len120_s10_isi-1p0_0p0_16p0.json","10.72","true","3sjyer6td42","","3723","https://mcdermottlab.mit.edu/mturk_stimuli/bjmedina/global-music-2025-n_80/mem_stim_5.wav","3","main","","","true","mem_stim_5.wav","false","16","","0","miss"
"","","","","","html-keyboard-response","183","367218","0.0-10.0-1.76","https://mcdermottlab.mit.edu/mturk_stimuli/bjmedina/global-music-2025-n_80/sequences/isi_16/len120/seq020_len120_s10_isi-1p0_0p0_16p0.json","10.72","true","3sjyer6td42","","null","<span style=""font-size: 40px"">+</span>","null","","","","","","","","","",""
"","","","","","audio-button-response","184","370559","0.0-10.0-2.76","https://mcdermottlab.mit.edu/mturk_stimuli/bjmedina/global-music-2025-n_80/sequences/isi_16/len120/seq020_len120_s10_isi-1p0_0p0_16p0.json","10.72","true","3sjyer6td42","","2992","https://mcdermottlab.mit.edu/mturk_stimuli/bjmedina/global-music-2025-n_80/mem_stim_8.wav","2","main","","","false","mem_stim_8.wav","false","-1","","1","correct_rejection"
"","","","","","html-keyboard-response","185","370619","0.0-10.0-1.77","https://mcdermottlab.mit.edu/mturk_stimuli/bjmedina/global-music-2025-n_80/sequences/isi_16/len120/seq020_len120_s10_isi-1p0_0p0_16p0.json","10.72","true","3sjyer6td42","","null","<span style=""font-size: 40px"">+</span>","null","","","","","","","","","",""
"","","","","","audio-button-response","186","373276","0.0-10.0-2.77","https://mcdermottlab.mit.edu/mturk_stimuli/bjmedina/global-music-2025-n_80/sequences/isi_16/len120/seq020_len120_s10_isi-1p0_0p0_16p0.json","10.72","true","3sjyer6td42","","2656","https://mcdermottlab.mit.edu/mturk_stimuli/bjmedina/global-music-2025-n_80/mem_stim_69.wav","3","main","","","true","mem_stim_69.wav","false","16","","0","miss"
"","","","","","html-keyboard-response","187","373336","0.0-10.0-1.78","https://mcdermottlab.mit.edu/mturk_stimuli/bjmedina/global-music-2025-n_80/sequences/isi_16/len120/seq020_len120_s10_isi-1p0_0p0_16p0.json","10.72","true","3sjyer6td42","","null","<span style=""font-size: 40px"">+</span>","null","","","","","","","","","",""
"","","","","","audio-button-response","188","377309","0.0-10.0-2.78","https://mcdermottlab.mit.edu/mturk_stimuli/bjmedina/global-music-2025-n_80/sequences/isi_16/len120/seq020_len120_s10_isi-1p0_0p0_16p0.json","10.72","true","3sjyer6td42","","3675","https://mcdermottlab.mit.edu/mturk_stimuli/bjmedina/global-music-2025-n_80/mem_stim_77.wav","2","main","","","false","mem_stim_77.wav","false","-1","","1","correct_rejection"
"","","","","","html-keyboard-response","189","377369","0.0-10.0-1.79","https://mcdermottlab.mit.edu/mturk_stimuli/bjmedina/global-music-2025-n_80/sequences/isi_16/len120/seq020_len120_s10_isi-1p0_0p0_16p0.json","10.72","true","3sjyer6td42","","null","<span style=""font-size: 40px"">+</span>","null","","","","","","","","","",""
"","","","","","audio-button-response","190","380343","0.0-10.0-2.79","https://mcdermottlab.mit.edu/mturk_stimuli/bjmedina/global-music-2025-n_80/sequences/isi_16/len120/seq020_len120_s10_isi-1p0_0p0_16p0.json","10.72","true","3sjyer6td42","","2683","https://mcdermottlab.mit.edu/mturk_stimuli/bjmedina/global-music-2025-n_80/mem_stim_16.wav","3","main","","","false","mem_stim_16.wav","false","-1","","1","correct_rejection"
"","","","","","html-keyboard-response","191","380403","0.0-10.0-1.80","https://mcdermottlab.mit.edu/mturk_stimuli/bjmedina/global-music-2025-n_80/sequences/isi_16/len120/seq020_len120_s10_isi-1p0_0p0_16p0.json","10.72","true","3sjyer6td42","","null","<span style=""font-size: 40px"">+</span>","null","","","","","","","","","",""
"","","","","","audio-button-response","192","383692","0.0-10.0-2.80","https://mcdermottlab.mit.edu/mturk_stimuli/bjmedina/global-music-2025-n_80/sequences/isi_16/len120/seq020_len120_s10_isi-1p0_0p0_16p0.json","10.72","true","3sjyer6td42","","2965","https://mcdermottlab.mit.edu/mturk_stimuli/bjmedina/global-music-2025-n_80/mem_stim_49.wav","1","main","","","false","mem_stim_49.wav","false","-1","","0","false_alarm"
"","","","","","html-keyboard-response","193","383753","0.0-10.0-1.81","https://mcdermottlab.mit.edu/mturk_stimuli/bjmedina/global-music-2025-n_80/sequences/isi_16/len120/seq020_len120_s10_isi-1p0_0p0_16p0.json","10.72","true","3sjyer6td42","","null","<span style=""font-size: 40px"">+</span>","null","","","","","","","","","",""
"","","","","","audio-button-response","194","387325","0.0-10.0-2.81","https://mcdermottlab.mit.edu/mturk_stimuli/bjmedina/global-music-2025-n_80/sequences/isi_16/len120/seq020_len120_s10_isi-1p0_0p0_16p0.json","10.72","true","3sjyer6td42","","3253","https://mcdermottlab.mit.edu/mturk_stimuli/bjmedina/global-music-2025-n_80/mem_stim_17.wav","3","main","","","false","mem_stim_17.wav","false","-1","","1","correct_rejection"
"","","","","","html-keyboard-response","195","387386","0.0-10.0-1.82","https://mcdermottlab.mit.edu/mturk_stimuli/bjmedina/global-music-2025-n_80/sequences/isi_16/len120/seq020_len120_s10_isi-1p0_0p0_16p0.json","10.72","true","3sjyer6td42","","null","<span style=""font-size: 40px"">+</span>","null","","","","","","","","","",""
"","","","","","audio-button-response","196","391125","0.0-10.0-2.82","https://mcdermottlab.mit.edu/mturk_stimuli/bjmedina/global-music-2025-n_80/sequences/isi_16/len120/seq020_len120_s10_isi-1p0_0p0_16p0.json","10.72","true","3sjyer6td42","","3733","https://mcdermottlab.mit.edu/mturk_stimuli/bjmedina/global-music-2025-n_80/mem_stim_46.wav","2","main","","","true","mem_stim_46.wav","false","16","","0","miss"
"","","","","","html-keyboard-response","197","391185","0.0-10.0-1.83","https://mcdermottlab.mit.edu/mturk_stimuli/bjmedina/global-music-2025-n_80/sequences/isi_16/len120/seq020_len120_s10_isi-1p0_0p0_16p0.json","10.72","true","3sjyer6td42","","null","<span style=""font-size: 40px"">+</span>","null","","","","","","","","","",""
"","","","","","audio-button-response","198","393859","0.0-10.0-2.83","https://mcdermottlab.mit.edu/mturk_stimuli/bjmedina/global-music-2025-n_80/sequences/isi_16/len120/seq020_len120_s10_isi-1p0_0p0_16p0.json","10.72","true","3sjyer6td42","","2672","https://mcdermottlab.mit.edu/mturk_stimuli/bjmedina/global-music-2025-n_80/mem_stim_25.wav","2","main","","","true","mem_stim_25.wav","false","16","","0","miss"
"","","","","","html-keyboard-response","199","393920","0.0-10.0-1.84","https://mcdermottlab.mit.edu/mturk_stimuli/bjmedina/global-music-2025-n_80/sequences/isi_16/len120/seq020_len120_s10_isi-1p0_0p0_16p0.json","10.72","true","3sjyer6td42","","null","<span style=""font-size: 40px"">+</span>","null","","","","","","","","","",""
"","","","","","audio-button-response","200","397842","0.0-10.0-2.84","https://mcdermottlab.mit.edu/mturk_stimuli/bjmedina/global-music-2025-n_80/sequences/isi_16/len120/seq020_len120_s10_isi-1p0_0p0_16p0.json","10.72","true","3sjyer6td42","","3563","https://mcdermottlab.mit.edu/mturk_stimuli/bjmedina/global-music-2025-n_80/mem_stim_6.wav","1","main","","","false","mem_stim_6.wav","false","-1","","0","false_alarm"
"","","","","","html-keyboard-response","201","397903","0.0-10.0-1.85","https://mcdermottlab.mit.edu/mturk_stimuli/bjmedina/global-music-2025-n_80/sequences/isi_16/len120/seq020_len120_s10_isi-1p0_0p0_16p0.json","10.72","true","3sjyer6td42","","null","<span style=""font-size: 40px"">+</span>","null","","","","","","","","","",""
"","","","","","audio-button-response","202","400892","0.0-10.0-2.85","https://mcdermottlab.mit.edu/mturk_stimuli/bjmedina/global-music-2025-n_80/sequences/isi_16/len120/seq020_len120_s10_isi-1p0_0p0_16p0.json","10.72","true","3sjyer6td42","","2688","https://mcdermottlab.mit.edu/mturk_stimuli/bjmedina/global-music-2025-n_80/mem_stim_20.wav","3","main","","","false","mem_stim_20.wav","false","-1","","1","correct_rejection"
"","","","","","html-keyboard-response","203","400953","0.0-10.0-1.86","https://mcdermottlab.mit.edu/mturk_stimuli/bjmedina/global-music-2025-n_80/sequences/isi_16/len120/seq020_len120_s10_isi-1p0_0p0_16p0.json","10.72","true","3sjyer6td42","","null","<span style=""font-size: 40px"">+</span>","null","","","","","","","","","",""
"","","","","","audio-button-response","204","403492","0.0-10.0-2.86","https://mcdermottlab.mit.edu/mturk_stimuli/bjmedina/global-music-2025-n_80/sequences/isi_16/len120/seq020_len120_s10_isi-1p0_0p0_16p0.json","10.72","true","3sjyer6td42","","2539","https://mcdermottlab.mit.edu/mturk_stimuli/bjmedina/global-music-2025-n_80/mem_stim_45.wav","3","main","","","true","mem_stim_45.wav","false","16","","0","miss"
"","","","","","html-keyboard-response","205","403552","0.0-10.0-1.87","https://mcdermottlab.mit.edu/mturk_stimuli/bjmedina/global-music-2025-n_80/sequences/isi_16/len120/seq020_len120_s10_isi-1p0_0p0_16p0.json","10.72","true","3sjyer6td42","","null","<span style=""font-size: 40px"">+</span>","null","","","","","","","","","",""
"","","","","","audio-button-response","206","406392","0.0-10.0-2.87","https://mcdermottlab.mit.edu/mturk_stimuli/bjmedina/global-music-2025-n_80/sequences/isi_16/len120/seq020_len120_s10_isi-1p0_0p0_16p0.json","10.72","true","3sjyer6td42","","2501","https://mcdermottlab.mit.edu/mturk_stimuli/bjmedina/global-music-2025-n_80/mem_stim_59.wav","2","main","","","false","mem_stim_59.wav","false","-1","","1","correct_rejection"
"","","","","","html-keyboard-response","207","406452","0.0-10.0-1.88","https://mcdermottlab.mit.edu/mturk_stimuli/bjmedina/global-music-2025-n_80/sequences/isi_16/len120/seq020_len120_s10_isi-1p0_0p0_16p0.json","10.72","true","3sjyer6td42","","null","<span style=""font-size: 40px"">+</span>","null","","","","","","","","","",""
"","","","","","audio-button-response","208","408892","0.0-10.0-2.88","https://mcdermottlab.mit.edu/mturk_stimuli/bjmedina/global-music-2025-n_80/sequences/isi_16/len120/seq020_len120_s10_isi-1p0_0p0_16p0.json","10.72","true","3sjyer6td42","","2443","https://mcdermottlab.mit.edu/mturk_stimuli/bjmedina/global-music-2025-n_80/mem_stim_59.wav","3","main","","","true","mem_stim_59.wav","true","0","","0","miss"
"","","","","","html-keyboard-response","209","408952","0.0-10.0-1.89","https://mcdermottlab.mit.edu/mturk_stimuli/bjmedina/global-music-2025-n_80/sequences/isi_16/len120/seq020_len120_s10_isi-1p0_0p0_16p0.json","10.72","true","3sjyer6td42","","null","<span style=""font-size: 40px"">+</span>","null","","","","","","","","","",""
"","","","","","audio-button-response","210","411808","0.0-10.0-2.89","https://mcdermottlab.mit.edu/mturk_stimuli/bjmedina/global-music-2025-n_80/sequences/isi_16/len120/seq020_len120_s10_isi-1p0_0p0_16p0.json","10.72","true","3sjyer6td42","","2560","https://mcdermottlab.mit.edu/mturk_stimuli/bjmedina/global-music-2025-n_80/mem_stim_2.wav","3","main","","","false","mem_stim_2.wav","false","-1","","1","correct_rejection"
"","","","","","html-keyboard-response","211","411869","0.0-10.0-1.90","https://mcdermottlab.mit.edu/mturk_stimuli/bjmedina/global-music-2025-n_80/sequences/isi_16/len120/seq020_len120_s10_isi-1p0_0p0_16p0.json","10.72","true","3sjyer6td42","","null","<span style=""font-size: 40px"">+</span>","null","","","","","","","","","",""
"","","","","","audio-button-response","212","414509","0.0-10.0-2.90","https://mcdermottlab.mit.edu/mturk_stimuli/bjmedina/global-music-2025-n_80/sequences/isi_16/len120/seq020_len120_s10_isi-1p0_0p0_16p0.json","10.72","true","3sjyer6td42","","2640","https://mcdermottlab.mit.edu/mturk_stimuli/bjmedina/global-music-2025-n_80/mem_stim_13.wav","3","main","","","true","mem_stim_13.wav","false","16","","0","miss"
"","","","","","html-keyboard-response","213","414569","0.0-10.0-1.91","https://mcdermottlab.mit.edu/mturk_stimuli/bjmedina/global-music-2025-n_80/sequences/isi_16/len120/seq020_len120_s10_isi-1p0_0p0_16p0.json","10.72","true","3sjyer6td42","","null","<span style=""font-size: 40px"">+</span>","null","","","","","","","","","",""
"","","","","","audio-button-response","214","419143","0.0-10.0-2.91","https://mcdermottlab.mit.edu/mturk_stimuli/bjmedina/global-music-2025-n_80/sequences/isi_16/len120/seq020_len120_s10_isi-1p0_0p0_16p0.json","10.72","true","3sjyer6td42","","4224","https://mcdermottlab.mit.edu/mturk_stimuli/bjmedina/global-music-2025-n_80/mem_stim_70.wav","2","main","","","false","mem_stim_70.wav","false","-1","","1","correct_rejection"
"","","","","","html-keyboard-response","215","419203","0.0-10.0-1.92","https://mcdermottlab.mit.edu/mturk_stimuli/bjmedina/global-music-2025-n_80/sequences/isi_16/len120/seq020_len120_s10_isi-1p0_0p0_16p0.json","10.72","true","3sjyer6td42","","null","<span style=""font-size: 40px"">+</span>","null","","","","","","","","","",""
"","","","","","audio-button-response","216","422325","0.0-10.0-2.92","https://mcdermottlab.mit.edu/mturk_stimuli/bjmedina/global-music-2025-n_80/sequences/isi_16/len120/seq020_len120_s10_isi-1p0_0p0_16p0.json","10.72","true","3sjyer6td42","","2821","https://mcdermottlab.mit.edu/mturk_stimuli/bjmedina/global-music-2025-n_80/mem_stim_62.wav","1","main","","","false","mem_stim_62.wav","false","-1","","0","false_alarm"
"","","","","","html-keyboard-response","217","422386","0.0-10.0-1.93","https://mcdermottlab.mit.edu/mturk_stimuli/bjmedina/global-music-2025-n_80/sequences/isi_16/len120/seq020_len120_s10_isi-1p0_0p0_16p0.json","10.72","true","3sjyer6td42","","null","<span style=""font-size: 40px"">+</span>","null","","","","","","","","","",""
"","","","","","audio-button-response","218","424859","0.0-10.0-2.93","https://mcdermottlab.mit.edu/mturk_stimuli/bjmedina/global-music-2025-n_80/sequences/isi_16/len120/seq020_len120_s10_isi-1p0_0p0_16p0.json","10.72","true","3sjyer6td42","","2469","https://mcdermottlab.mit.edu/mturk_stimuli/bjmedina/global-music-2025-n_80/mem_stim_62.wav","3","main","","","true","mem_stim_62.wav","true","0","","0","miss"
"","","","","","html-keyboard-response","219","424919","0.0-10.0-1.94","https://mcdermottlab.mit.edu/mturk_stimuli/bjmedina/global-music-2025-n_80/sequences/isi_16/len120/seq020_len120_s10_isi-1p0_0p0_16p0.json","10.72","true","3sjyer6td42","","null","<span style=""font-size: 40px"">+</span>","null","","","","","","","","","",""
"","","","","","audio-button-response","220","428908","0.0-10.0-2.94","https://mcdermottlab.mit.edu/mturk_stimuli/bjmedina/global-music-2025-n_80/sequences/isi_16/len120/seq020_len120_s10_isi-1p0_0p0_16p0.json","10.72","true","3sjyer6td42","","3627","https://mcdermottlab.mit.edu/mturk_stimuli/bjmedina/global-music-2025-n_80/mem_stim_51.wav","2","main","","","false","mem_stim_51.wav","false","-1","","1","correct_rejection"
"","","","","","html-keyboard-response","221","428968","0.0-10.0-1.95","https://mcdermottlab.mit.edu/mturk_stimuli/bjmedina/global-music-2025-n_80/sequences/isi_16/len120/seq020_len120_s10_isi-1p0_0p0_16p0.json","10.72","true","3sjyer6td42","","null","<span style=""font-size: 40px"">+</span>","null","","","","","","","","","",""
"","","","","","audio-button-response","222","432475","0.0-10.0-2.95","https://mcdermottlab.mit.edu/mturk_stimuli/bjmedina/global-music-2025-n_80/sequences/isi_16/len120/seq020_len120_s10_isi-1p0_0p0_16p0.json","10.72","true","3sjyer6td42","","3509","https://mcdermottlab.mit.edu/mturk_stimuli/bjmedina/global-music-2025-n_80/mem_stim_77.wav","2","main","","","true","mem_stim_77.wav","false","16","","0","miss"
"","","","","","html-keyboard-response","223","432537","0.0-10.0-1.96","https://mcdermottlab.mit.edu/mturk_stimuli/bjmedina/global-music-2025-n_80/sequences/isi_16/len120/seq020_len120_s10_isi-1p0_0p0_16p0.json","10.72","true","3sjyer6td42","","null","<span style=""font-size: 40px"">+</span>","null","","","","","","","","","",""
"","","","","","audio-button-response","224","435792","0.0-10.0-2.96","https://mcdermottlab.mit.edu/mturk_stimuli/bjmedina/global-music-2025-n_80/sequences/isi_16/len120/seq020_len120_s10_isi-1p0_0p0_16p0.json","10.72","true","3sjyer6td42","","2960","https://mcdermottlab.mit.edu/mturk_stimuli/bjmedina/global-music-2025-n_80/mem_stim_37.wav","2","main","","","false","mem_stim_37.wav","false","-1","","1","correct_rejection"
"","","","","","html-keyboard-response","225","435853","0.0-10.0-1.97","https://mcdermottlab.mit.edu/mturk_stimuli/bjmedina/global-music-2025-n_80/sequences/isi_16/len120/seq020_len120_s10_isi-1p0_0p0_16p0.json","10.72","true","3sjyer6td42","","null","<span style=""font-size: 40px"">+</span>","null","","","","","","","","","",""
"","","","","","audio-button-response","226","440108","0.0-10.0-2.97","https://mcdermottlab.mit.edu/mturk_stimuli/bjmedina/global-music-2025-n_80/sequences/isi_16/len120/seq020_len120_s10_isi-1p0_0p0_16p0.json","10.72","true","3sjyer6td42","","3968","https://mcdermottlab.mit.edu/mturk_stimuli/bjmedina/global-music-2025-n_80/mem_stim_7.wav","1","main","","","false","mem_stim_7.wav","false","-1","","0","false_alarm"
"","","","","","html-keyboard-response","227","440168","0.0-10.0-1.98","https://mcdermottlab.mit.edu/mturk_stimuli/bjmedina/global-music-2025-n_80/sequences/isi_16/len120/seq020_len120_s10_isi-1p0_0p0_16p0.json","10.72","true","3sjyer6td42","","null","<span style=""font-size: 40px"">+</span>","null","","","","","","","","","",""
"","","","","","audio-button-response","228","444492","0.0-10.0-2.98","https://mcdermottlab.mit.edu/mturk_stimuli/bjmedina/global-music-2025-n_80/sequences/isi_16/len120/seq020_len120_s10_isi-1p0_0p0_16p0.json","10.72","true","3sjyer6td42","","4032","https://mcdermottlab.mit.edu/mturk_stimuli/bjmedina/global-music-2025-n_80/mem_stim_3.wav","1","main","","","false","mem_stim_3.wav","false","-1","","0","false_alarm"
"","","","","","html-keyboard-response","229","444554","0.0-10.0-1.99","https://mcdermottlab.mit.edu/mturk_stimuli/bjmedina/global-music-2025-n_80/sequences/isi_16/len120/seq020_len120_s10_isi-1p0_0p0_16p0.json","10.72","true","3sjyer6td42","","null","<span style=""font-size: 40px"">+</span>","null","","","","","","","","","",""
"","","","","","audio-button-response","230","448342","0.0-10.0-2.99","https://mcdermottlab.mit.edu/mturk_stimuli/bjmedina/global-music-2025-n_80/sequences/isi_16/len120/seq020_len120_s10_isi-1p0_0p0_16p0.json","10.72","true","3sjyer6td42","","3483","https://mcdermottlab.mit.edu/mturk_stimuli/bjmedina/global-music-2025-n_80/mem_stim_67.wav","2","main","","","false","mem_stim_67.wav","false","-1","","1","correct_rejection"
"","","","","","html-keyboard-response","231","448404","0.0-10.0-1.100","https://mcdermottlab.mit.edu/mturk_stimuli/bjmedina/global-music-2025-n_80/sequences/isi_16/len120/seq020_len120_s10_isi-1p0_0p0_16p0.json","10.72","true","3sjyer6td42","","null","<span style=""font-size: 40px"">+</span>","null","","","","","","","","","",""
"","","","","","audio-button-response","232","452642","0.0-10.0-2.100","https://mcdermottlab.mit.edu/mturk_stimuli/bjmedina/global-music-2025-n_80/sequences/isi_16/len120/seq020_len120_s10_isi-1p0_0p0_16p0.json","10.72","true","3sjyer6td42","","3952","https://mcdermottlab.mit.edu/mturk_stimuli/bjmedina/global-music-2025-n_80/mem_stim_28.wav","1","main","","","false","mem_stim_28.wav","false","-1","","0","false_alarm"
"","","","","","html-keyboard-response","233","452704","0.0-10.0-1.101","https://mcdermottlab.mit.edu/mturk_stimuli/bjmedina/global-music-2025-n_80/sequences/isi_16/len120/seq020_len120_s10_isi-1p0_0p0_16p0.json","10.72","true","3sjyer6td42","","null","<span style=""font-size: 40px"">+</span>","null","","","","","","","","","",""
"","","","","","audio-button-response","234","457159","0.0-10.0-2.101","https://mcdermottlab.mit.edu/mturk_stimuli/bjmedina/global-music-2025-n_80/sequences/isi_16/len120/seq020_len120_s10_isi-1p0_0p0_16p0.json","10.72","true","3sjyer6td42","","4453","https://mcdermottlab.mit.edu/mturk_stimuli/bjmedina/global-music-2025-n_80/mem_stim_6.wav","3","main","","","true","mem_stim_6.wav","false","16","","0","miss"
"","","","","","html-keyboard-response","235","457220","0.0-10.0-1.102","https://mcdermottlab.mit.edu/mturk_stimuli/bjmedina/global-music-2025-n_80/sequences/isi_16/len120/seq020_len120_s10_isi-1p0_0p0_16p0.json","10.72","true","3sjyer6td42","","null","<span style=""font-size: 40px"">+</span>","null","","","","","","","","","",""
"","","","","","audio-button-response","236","461191","0.0-10.0-2.102","https://mcdermottlab.mit.edu/mturk_stimuli/bjmedina/global-music-2025-n_80/sequences/isi_16/len120/seq020_len120_s10_isi-1p0_0p0_16p0.json","10.72","true","3sjyer6td42","","3552","https://mcdermottlab.mit.edu/mturk_stimuli/bjmedina/global-music-2025-n_80/mem_stim_50.wav","2","main","","","false","mem_stim_50.wav","false","-1","","1","correct_rejection"
"","","","","","html-keyboard-response","237","461251","0.0-10.0-1.103","https://mcdermottlab.mit.edu/mturk_stimuli/bjmedina/global-music-2025-n_80/sequences/isi_16/len120/seq020_len120_s10_isi-1p0_0p0_16p0.json","10.72","true","3sjyer6td42","","null","<span style=""font-size: 40px"">+</span>","null","","","","","","","","","",""
"","","","","","audio-button-response","238","467392","0.0-10.0-2.103","https://mcdermottlab.mit.edu/mturk_stimuli/bjmedina/global-music-2025-n_80/sequences/isi_16/len120/seq020_len120_s10_isi-1p0_0p0_16p0.json","10.72","true","3sjyer6td42","","5845","https://mcdermottlab.mit.edu/mturk_stimuli/bjmedina/global-music-2025-n_80/mem_stim_75.wav","1","main","","","false","mem_stim_75.wav","false","-1","","0","false_alarm"
"","","","","","html-keyboard-response","239","467453","0.0-10.0-1.104","https://mcdermottlab.mit.edu/mturk_stimuli/bjmedina/global-music-2025-n_80/sequences/isi_16/len120/seq020_len120_s10_isi-1p0_0p0_16p0.json","10.72","true","3sjyer6td42","","null","<span style=""font-size: 40px"">+</span>","null","","","","","","","","","",""
"","","","","","audio-button-response","240","470475","0.0-10.0-2.104","https://mcdermottlab.mit.edu/mturk_stimuli/bjmedina/global-music-2025-n_80/sequences/isi_16/len120/seq020_len120_s10_isi-1p0_0p0_16p0.json","10.72","true","3sjyer6td42","","2512","https://mcdermottlab.mit.edu/mturk_stimuli/bjmedina/global-music-2025-n_80/mem_stim_47.wav","3","main","","","false","mem_stim_47.wav","false","-1","","1","correct_rejection"
"","","","","","html-keyboard-response","241","470536","0.0-10.0-1.105","https://mcdermottlab.mit.edu/mturk_stimuli/bjmedina/global-music-2025-n_80/sequences/isi_16/len120/seq020_len120_s10_isi-1p0_0p0_16p0.json","10.72","true","3sjyer6td42","","null","<span style=""font-size: 40px"">+</span>","null","","","","","","","","","",""
"","","","","","audio-button-response","242","475792","0.0-10.0-2.105","https://mcdermottlab.mit.edu/mturk_stimuli/bjmedina/global-music-2025-n_80/sequences/isi_16/len120/seq020_len120_s10_isi-1p0_0p0_16p0.json","10.72","true","3sjyer6td42","","4960","https://mcdermottlab.mit.edu/mturk_stimuli/bjmedina/global-music-2025-n_80/mem_stim_55.wav","2","main","","","false","mem_stim_55.wav","false","-1","","1","correct_rejection"
"","","","","","html-keyboard-response","243","475854","0.0-10.0-1.106","https://mcdermottlab.mit.edu/mturk_stimuli/bjmedina/global-music-2025-n_80/sequences/isi_16/len120/seq020_len120_s10_isi-1p0_0p0_16p0.json","10.72","true","3sjyer6td42","","null","<span style=""font-size: 40px"">+</span>","null","","","","","","","","","",""
"","","","","","audio-button-response","244","480208","0.0-10.0-2.106","https://mcdermottlab.mit.edu/mturk_stimuli/bjmedina/global-music-2025-n_80/sequences/isi_16/len120/seq020_len120_s10_isi-1p0_0p0_16p0.json","10.72","true","3sjyer6td42","","3835","https://mcdermottlab.mit.edu/mturk_stimuli/bjmedina/global-music-2025-n_80/mem_stim_42.wav","1","main","","","false","mem_stim_42.wav","false","-1","","0","false_alarm"
"","","","","","html-keyboard-response","245","480271","0.0-10.0-1.107","https://mcdermottlab.mit.edu/mturk_stimuli/bjmedina/global-music-2025-n_80/sequences/isi_16/len120/seq020_len120_s10_isi-1p0_0p0_16p0.json","10.72","true","3sjyer6td42","","null","<span style=""font-size: 40px"">+</span>","null","","","","","","","","","",""
"","","","","","audio-button-response","246","485374","0.0-10.0-2.107","https://mcdermottlab.mit.edu/mturk_stimuli/bjmedina/global-music-2025-n_80/sequences/isi_16/len120/seq020_len120_s10_isi-1p0_0p0_16p0.json","10.72","true","3sjyer6td42","","4811","https://mcdermottlab.mit.edu/mturk_stimuli/bjmedina/global-music-2025-n_80/mem_stim_76.wav","2","main","","","false","mem_stim_76.wav","false","-1","","1","correct_rejection"
"","","","","","html-keyboard-response","247","485436","0.0-10.0-1.108","https://mcdermottlab.mit.edu/mturk_stimuli/bjmedina/global-music-2025-n_80/sequences/isi_16/len120/seq020_len120_s10_isi-1p0_0p0_16p0.json","10.72","true","3sjyer6td42","","null","<span style=""font-size: 40px"">+</span>","null","","","","","","","","","",""
"","","","","","audio-button-response","248","487992","0.0-10.0-2.108","https://mcdermottlab.mit.edu/mturk_stimuli/bjmedina/global-music-2025-n_80/sequences/isi_16/len120/seq020_len120_s10_isi-1p0_0p0_16p0.json","10.72","true","3sjyer6td42","","2555","https://mcdermottlab.mit.edu/mturk_stimuli/bjmedina/global-music-2025-n_80/mem_stim_70.wav","3","main","","","true","mem_stim_70.wav","false","16","","0","miss"
"","","","","","html-keyboard-response","249","488053","0.0-10.0-1.109","https://mcdermottlab.mit.edu/mturk_stimuli/bjmedina/global-music-2025-n_80/sequences/isi_16/len120/seq020_len120_s10_isi-1p0_0p0_16p0.json","10.72","true","3sjyer6td42","","null","<span style=""font-size: 40px"">+</span>","null","","","","","","","","","",""
"","","","","","audio-button-response","250","491142","0.0-10.0-2.109","https://mcdermottlab.mit.edu/mturk_stimuli/bjmedina/global-music-2025-n_80/sequences/isi_16/len120/seq020_len120_s10_isi-1p0_0p0_16p0.json","10.72","true","3sjyer6td42","","2720","https://mcdermottlab.mit.edu/mturk_stimuli/bjmedina/global-music-2025-n_80/mem_stim_29.wav","1","main","","","false","mem_stim_29.wav","false","-1","","0","false_alarm"
"","","","","","html-keyboard-response","251","491203","0.0-10.0-1.110","https://mcdermottlab.mit.edu/mturk_stimuli/bjmedina/global-music-2025-n_80/sequences/isi_16/len120/seq020_len120_s10_isi-1p0_0p0_16p0.json","10.72","true","3sjyer6td42","","null","<span style=""font-size: 40px"">+</span>","null","","","","","","","","","",""
"","","","","","audio-button-response","252","494758","0.0-10.0-2.110","https://mcdermottlab.mit.edu/mturk_stimuli/bjmedina/global-music-2025-n_80/sequences/isi_16/len120/seq020_len120_s10_isi-1p0_0p0_16p0.json","10.72","true","3sjyer6td42","","3248","https://mcdermottlab.mit.edu/mturk_stimuli/bjmedina/global-music-2025-n_80/mem_stim_22.wav","3","main","","","false","mem_stim_22.wav","false","-1","","1","correct_rejection"
"","","","","","html-keyboard-response","253","494820","0.0-10.0-1.111","https://mcdermottlab.mit.edu/mturk_stimuli/bjmedina/global-music-2025-n_80/sequences/isi_16/len120/seq020_len120_s10_isi-1p0_0p0_16p0.json","10.72","true","3sjyer6td42","","null","<span style=""font-size: 40px"">+</span>","null","","","","","","","","","",""
"","","","","","audio-button-response","254","497275","0.0-10.0-2.111","https://mcdermottlab.mit.edu/mturk_stimuli/bjmedina/global-music-2025-n_80/sequences/isi_16/len120/seq020_len120_s10_isi-1p0_0p0_16p0.json","10.72","true","3sjyer6td42","","2453","https://mcdermottlab.mit.edu/mturk_stimuli/bjmedina/global-music-2025-n_80/mem_stim_51.wav","3","main","","","true","mem_stim_51.wav","false","16","","0","miss"
"","","","","","html-keyboard-response","255","497336","0.0-10.0-1.112","https://mcdermottlab.mit.edu/mturk_stimuli/bjmedina/global-music-2025-n_80/sequences/isi_16/len120/seq020_len120_s10_isi-1p0_0p0_16p0.json","10.72","true","3sjyer6td42","","null","<span style=""font-size: 40px"">+</span>","null","","","","","","","","","",""
"","","","","","audio-button-response","256","500975","0.0-10.0-2.112","https://mcdermottlab.mit.edu/mturk_stimuli/bjmedina/global-music-2025-n_80/sequences/isi_16/len120/seq020_len120_s10_isi-1p0_0p0_16p0.json","10.72","true","3sjyer6td42","","3280","https://mcdermottlab.mit.edu/mturk_stimuli/bjmedina/global-music-2025-n_80/mem_stim_52.wav","2","main","","","false","mem_stim_52.wav","false","-1","","1","correct_rejection"
"","","","","","html-keyboard-response","257","501037","0.0-10.0-1.113","https://mcdermottlab.mit.edu/mturk_stimuli/bjmedina/global-music-2025-n_80/sequences/isi_16/len120/seq020_len120_s10_isi-1p0_0p0_16p0.json","10.72","true","3sjyer6td42","","null","<span style=""font-size: 40px"">+</span>","null","","","","","","","","","",""
"","","","","","audio-button-response","258","503692","0.0-10.0-2.113","https://mcdermottlab.mit.edu/mturk_stimuli/bjmedina/global-music-2025-n_80/sequences/isi_16/len120/seq020_len120_s10_isi-1p0_0p0_16p0.json","10.72","true","3sjyer6td42","","2656","https://mcdermottlab.mit.edu/mturk_stimuli/bjmedina/global-music-2025-n_80/mem_stim_37.wav","3","main","","","true","mem_stim_37.wav","false","16","","0","miss"
"","","","","","html-keyboard-response","259","503753","0.0-10.0-1.114","https://mcdermottlab.mit.edu/mturk_stimuli/bjmedina/global-music-2025-n_80/sequences/isi_16/len120/seq020_len120_s10_isi-1p0_0p0_16p0.json","10.72","true","3sjyer6td42","","null","<span style=""font-size: 40px"">+</span>","null","","","","","","","","","",""
"","","","","","audio-button-response","260","507425","0.0-10.0-2.114","https://mcdermottlab.mit.edu/mturk_stimuli/bjmedina/global-music-2025-n_80/sequences/isi_16/len120/seq020_len120_s10_isi-1p0_0p0_16p0.json","10.72","true","3sjyer6td42","","3669","https://mcdermottlab.mit.edu/mturk_stimuli/bjmedina/global-music-2025-n_80/mem_stim_7.wav","2","main","","","true","mem_stim_7.wav","false","16","","0","miss"
"","","","","","html-keyboard-response","261","507486","0.0-10.0-1.115","https://mcdermottlab.mit.edu/mturk_stimuli/bjmedina/global-music-2025-n_80/sequences/isi_16/len120/seq020_len120_s10_isi-1p0_0p0_16p0.json","10.72","true","3sjyer6td42","","null","<span style=""font-size: 40px"">+</span>","null","","","","","","","","","",""
"","","","","","audio-button-response","262","511074","0.0-10.0-2.115","https://mcdermottlab.mit.edu/mturk_stimuli/bjmedina/global-music-2025-n_80/sequences/isi_16/len120/seq020_len120_s10_isi-1p0_0p0_16p0.json","10.72","true","3sjyer6td42","","3589","https://mcdermottlab.mit.edu/mturk_stimuli/bjmedina/global-music-2025-n_80/mem_stim_3.wav","3","main","","","true","mem_stim_3.wav","false","16","","0","miss"
"","","","","","html-keyboard-response","263","511137","0.0-10.0-1.116","https://mcdermottlab.mit.edu/mturk_stimuli/bjmedina/global-music-2025-n_80/sequences/isi_16/len120/seq020_len120_s10_isi-1p0_0p0_16p0.json","10.72","true","3sjyer6td42","","null","<span style=""font-size: 40px"">+</span>","null","","","","","","","","","",""
"","","","","","audio-button-response","264","514058","0.0-10.0-2.116","https://mcdermottlab.mit.edu/mturk_stimuli/bjmedina/global-music-2025-n_80/sequences/isi_16/len120/seq020_len120_s10_isi-1p0_0p0_16p0.json","10.72","true","3sjyer6td42","","2613","https://mcdermottlab.mit.edu/mturk_stimuli/bjmedina/global-music-2025-n_80/mem_stim_35.wav","3","main","","","false","mem_stim_35.wav","false","-1","","1","correct_rejection"
"","","","","","html-keyboard-response","265","514120","0.0-10.0-1.117","https://mcdermottlab.mit.edu/mturk_stimuli/bjmedina/global-music-2025-n_80/sequences/isi_16/len120/seq020_len120_s10_isi-1p0_0p0_16p0.json","10.72","true","3sjyer6td42","","null","<span style=""font-size: 40px"">+</span>","null","","","","","","","","","",""
