"success","timeout","failed_images","failed_audio","failed_video","trial_type","trial_index","time_elapsed","internal_node_id","sequence_file","pay","passed_hc","completion_code","view_history","rt","stimulus","response","stim_type","hc_answer","correct_hc","repeat","yt_id","catch","isi","type","is_correct","response_type"
"true","false","[]","[]","[]","preload","0","368","0.0-0.0","https://mcdermottlab.mit.edu/mturk_stimuli/bjmedina/global-music-2025-n_80/sequences/isi_16/len120/seq033_len120_s10_isi-1p0_0p0_16p0.json","10.870000000000001","true","bxp5omnl5xp","","","","","","","","","","","","","",""
"","","","","","instructions","1","3295","0.0-1.0","https://mcdermottlab.mit.edu/mturk_stimuli/bjmedina/global-music-2025-n_80/sequences/isi_16/len120/seq033_len120_s10_isi-1p0_0p0_16p0.json","10.870000000000001","true","bxp5omnl5xp","[{""page_index"":0,""viewing_time"":2926}]","2926","","","","","","","","","","","",""
"","","","","","instructions","2","14980","0.0-2.0","https://mcdermottlab.mit.edu/mturk_stimuli/bjmedina/global-music-2025-n_80/sequences/isi_16/len120/seq033_len120_s10_isi-1p0_0p0_16p0.json","10.870000000000001","true","bxp5omnl5xp","[{""page_index"":0,""viewing_time"":11684}]","11684","","","","","","","","","","","",""
"","","","","","audio-button-response","3","25504","0.0-3.0-0.0","https://mcdermottlab.mit.edu/mturk_stimuli/bjmedina/global-music-2025-n_80/sequences/isi_16/len120/seq033_len120_s10_isi-1p0_0p0_16p0.json","10.870000000000001","true","bxp5omnl5xp","","10221","https://mcdermottlab.mit.edu/bjmedina/experiments/mem_exp_v01/assets/noise_calib_stim.wav","0","","","","","","","","","",""
"","","","","","audio-button-response","4","31751","0.0-3.1-0.1","https://mcdermottlab.mit.edu/mturk_stimuli/bjmedina/global-music-2025-n_80/sequences/isi_16/len120/seq033_len120_s10_isi-1p0_0p0_16p0.json","10.870000000000001","true","bxp5omnl5xp","","6251","https://mcdermottlab.mit.edu/bjmedina/experiments/mem_exp_v01/assets/noise_calib_stim.wav","0","","","","","","","","","",""
"","","","","","audio-button-response","5","41587","0.0-3.2-0.2","https://mcdermottlab.mit.edu/mturk_stimuli/bjmedina/global-music-2025-n_80/sequences/isi_16/len120/seq033_len120_s10_isi-1p0_0p0_16p0.json","10.870000000000001","true","bxp5omnl5xp","","9829","https://mcdermottlab.mit.edu/bjmedina/experiments/mem_exp_v01/assets/noise_calib_stim.wav","0","","","","","","","","","",""
"","","","","","audio-button-response","6","51962","0.0-3.3-0.3","https://mcdermottlab.mit.edu/mturk_stimuli/bjmedina/global-music-2025-n_80/sequences/isi_16/len120/seq033_len120_s10_isi-1p0_0p0_16p0.json","10.870000000000001","true","bxp5omnl5xp","","10379","https://mcdermottlab.mit.edu/bjmedina/experiments/mem_exp_v01/assets/noise_calib_stim.wav","0","","","","","","","","","",""
"","","","","","audio-button-response","7","74403","0.0-3.4-0.4","https://mcdermottlab.mit.edu/mturk_stimuli/bjmedina/global-music-2025-n_80/sequences/isi_16/len120/seq033_len120_s10_isi-1p0_0p0_16p0.json","10.870000000000001","true","bxp5omnl5xp","","21800","https://mcdermottlab.mit.edu/bjmedina/experiments/mem_exp_v01/assets/noise_calib_stim.wav","0","","","","","","","","","",""
"","","","","","audio-button-response","8","84127","0.0-3.5-0.5","https://mcdermottlab.mit.edu/mturk_stimuli/bjmedina/global-music-2025-n_80/sequences/isi_16/len120/seq033_len120_s10_isi-1p0_0p0_16p0.json","10.870000000000001","true","bxp5omnl5xp","","9720","https://mcdermottlab.mit.edu/bjmedina/experiments/mem_exp_v01/assets/noise_calib_stim.wav","0","","","","","","","","","",""
"","","","","","audio-button-response","9","90423","0.0-3.6-0.6","https://mcdermottlab.mit.edu/mturk_stimuli/bjmedina/global-music-2025-n_80/sequences/isi_16/len120/seq033_len120_s10_isi-1p0_0p0_16p0.json","10.870000000000001","true","bxp5omnl5xp","","6291","https://mcdermottlab.mit.edu/bjmedina/experiments/mem_exp_v01/assets/noise_calib_stim.wav","0","","","","","","","","","",""
"","","","","","audio-button-response","10","99830","0.0-3.7-0.7","https://mcdermottlab.mit.edu/mturk_stimuli/bjmedina/global-music-2025-n_80/sequences/isi_16/len120/seq033_len120_s10_isi-1p0_0p0_16p0.json","10.870000000000001","true","bxp5omnl5xp","","9411","https://mcdermottlab.mit.edu/bjmedina/experiments/mem_exp_v01/assets/noise_calib_stim.wav","0","","","","","","","","","",""
"","","","","","audio-button-response","11","106231","0.0-3.8-0.8","https://mcdermottlab.mit.edu/mturk_stimuli/bjmedina/global-music-2025-n_80/sequences/isi_16/len120/seq033_len120_s10_isi-1p0_0p0_16p0.json","10.870000000000001","true","bxp5omnl5xp","","6400","https://mcdermottlab.mit.edu/bjmedina/experiments/mem_exp_v01/assets/noise_calib_stim.wav","0","","","","","","","","","",""
"","","","","","audio-button-response","12","120281","0.0-3.9-0.9","https://mcdermottlab.mit.edu/mturk_stimuli/bjmedina/global-music-2025-n_80/sequences/isi_16/len120/seq033_len120_s10_isi-1p0_0p0_16p0.json","10.870000000000001","true","bxp5omnl5xp","","14048","https://mcdermottlab.mit.edu/bjmedina/experiments/mem_exp_v01/assets/noise_calib_stim.wav","0","","","","","","","","","",""
"","","","","","audio-button-response","13","131243","0.0-3.10-0.10","https://mcdermottlab.mit.edu/mturk_stimuli/bjmedina/global-music-2025-n_80/sequences/isi_16/len120/seq033_len120_s10_isi-1p0_0p0_16p0.json","10.870000000000001","true","bxp5omnl5xp","","10960","https://mcdermottlab.mit.edu/bjmedina/experiments/mem_exp_v01/assets/noise_calib_stim.wav","1","","","","","","","","","",""
"","","","","","instructions","14","150007","0.0-4.0","https://mcdermottlab.mit.edu/mturk_stimuli/bjmedina/global-music-2025-n_80/sequences/isi_16/len120/seq033_len120_s10_isi-1p0_0p0_16p0.json","10.870000000000001","true","bxp5omnl5xp","[{""page_index"":0,""viewing_time"":18762}]","18763","","","","","","","","","","","",""
"","","","","","audio-button-response","15","160337","0.0-5.0-0.0","https://mcdermottlab.mit.edu/mturk_stimuli/bjmedina/global-music-2025-n_80/sequences/isi_16/len120/seq033_len120_s10_isi-1p0_0p0_16p0.json","10.870000000000001","true","bxp5omnl5xp","","9571","https://mcdermottlab.mit.edu/bjmedina/experiments/mem_exp_v01/assets/antiphase_HC_OSI.wav","1","hc","2","1","","","","","","",""
"","","","","","audio-button-response","16","166252","0.0-5.0-0.1","https://mcdermottlab.mit.edu/mturk_stimuli/bjmedina/global-music-2025-n_80/sequences/isi_16/len120/seq033_len120_s10_isi-1p0_0p0_16p0.json","10.870000000000001","true","bxp5omnl5xp","","5149","https://mcdermottlab.mit.edu/bjmedina/experiments/mem_exp_v01/assets/antiphase_HC_OIS.wav","2","hc","3","1","","","","","","",""
"","","","","","audio-button-response","17","172248","0.0-5.0-0.2","https://mcdermottlab.mit.edu/mturk_stimuli/bjmedina/global-music-2025-n_80/sequences/isi_16/len120/seq033_len120_s10_isi-1p0_0p0_16p0.json","10.870000000000001","true","bxp5omnl5xp","","5240","https://mcdermottlab.mit.edu/bjmedina/experiments/mem_exp_v01/assets/antiphase_HC_IOS.wav","2","hc","3","1","","","","","","",""
"","","","","","audio-button-response","18","177874","0.0-5.0-0.3","https://mcdermottlab.mit.edu/mturk_stimuli/bjmedina/global-music-2025-n_80/sequences/isi_16/len120/seq033_len120_s10_isi-1p0_0p0_16p0.json","10.870000000000001","true","bxp5omnl5xp","","4861","https://mcdermottlab.mit.edu/bjmedina/experiments/mem_exp_v01/assets/antiphase_HC_SOI.wav","0","hc","1","1","","","","","","",""
"","","","","","audio-button-response","19","183099","0.0-5.0-0.4","https://mcdermottlab.mit.edu/mturk_stimuli/bjmedina/global-music-2025-n_80/sequences/isi_16/len120/seq033_len120_s10_isi-1p0_0p0_16p0.json","10.870000000000001","true","bxp5omnl5xp","","4499","https://mcdermottlab.mit.edu/bjmedina/experiments/mem_exp_v01/assets/antiphase_HC_ISO.wav","1","hc","2","1","","","","","","",""
"","","","","","audio-button-response","20","188874","0.0-5.0-0.5","https://mcdermottlab.mit.edu/mturk_stimuli/bjmedina/global-music-2025-n_80/sequences/isi_16/len120/seq033_len120_s10_isi-1p0_0p0_16p0.json","10.870000000000001","true","bxp5omnl5xp","","4280","https://mcdermottlab.mit.edu/bjmedina/experiments/mem_exp_v01/assets/antiphase_HC_SIO.wav","0","hc","1","1","","","","","","",""
"","","","","","html-keyboard-response","21","191453","0.0-6.0","https://mcdermottlab.mit.edu/mturk_stimuli/bjmedina/global-music-2025-n_80/sequences/isi_16/len120/seq033_len120_s10_isi-1p0_0p0_16p0.json","10.870000000000001","true","bxp5omnl5xp","","2577","<h1>You have finished the LOUDNESS task!</h1> <p>Press space to continue</p>"," ","","","","","","","","","",""
"","","","","","instructions","22","261670","0.0-7.0","https://mcdermottlab.mit.edu/mturk_stimuli/bjmedina/global-music-2025-n_80/sequences/isi_16/len120/seq033_len120_s10_isi-1p0_0p0_16p0.json","10.870000000000001","true","bxp5omnl5xp","[{""page_index"":0,""viewing_time"":5879},{""page_index"":1,""viewing_time"":31727},{""page_index"":2,""viewing_time"":27545},{""page_index"":3,""viewing_time"":5065}]","70217","","","","","","","","","","","",""
"","","","","","html-keyboard-response","23","261721","0.0-8.0-0.0","https://mcdermottlab.mit.edu/mturk_stimuli/bjmedina/global-music-2025-n_80/sequences/isi_16/len120/seq033_len120_s10_isi-1p0_0p0_16p0.json","10.870000000000001","true","bxp5omnl5xp","","null","<span style=""font-size: 40px"">+</span>","null","fixation","","","","","","","","",""
"","","","","","audio-button-response","24","268382","0.0-8.0-1.0","https://mcdermottlab.mit.edu/mturk_stimuli/bjmedina/global-music-2025-n_80/sequences/isi_16/len120/seq033_len120_s10_isi-1p0_0p0_16p0.json","10.870000000000001","true","bxp5omnl5xp","","5379","https://mcdermottlab.mit.edu/mturk_stimuli/bjmedina/mem_exp_v05/mem_stim_1023_f32.wav","0","demo","","","0","","","","","",""
"","","","","","html-keyboard-response","25","268443","0.0-8.0-0.1","https://mcdermottlab.mit.edu/mturk_stimuli/bjmedina/global-music-2025-n_80/sequences/isi_16/len120/seq033_len120_s10_isi-1p0_0p0_16p0.json","10.870000000000001","true","bxp5omnl5xp","","null","<span style=""font-size: 40px"">+</span>","null","fixation","","","","","","","","",""
"","","","","","audio-button-response","26","273166","0.0-8.0-1.1","https://mcdermottlab.mit.edu/mturk_stimuli/bjmedina/global-music-2025-n_80/sequences/isi_16/len120/seq033_len120_s10_isi-1p0_0p0_16p0.json","10.870000000000001","true","bxp5omnl5xp","","3781","https://mcdermottlab.mit.edu/mturk_stimuli/bjmedina/mem_exp_v05/mem_stim_1022_f32.wav","0","demo","","","0","","","","","",""
"","","","","","html-keyboard-response","27","273228","0.0-8.0-0.2","https://mcdermottlab.mit.edu/mturk_stimuli/bjmedina/global-music-2025-n_80/sequences/isi_16/len120/seq033_len120_s10_isi-1p0_0p0_16p0.json","10.870000000000001","true","bxp5omnl5xp","","null","<span style=""font-size: 40px"">+</span>","null","fixation","","","","","","","","",""
"","","","","","audio-button-response","28","275976","0.0-8.0-1.2","https://mcdermottlab.mit.edu/mturk_stimuli/bjmedina/global-music-2025-n_80/sequences/isi_16/len120/seq033_len120_s10_isi-1p0_0p0_16p0.json","10.870000000000001","true","bxp5omnl5xp","","2752","https://mcdermottlab.mit.edu/mturk_stimuli/bjmedina/mem_exp_v05/mem_stim_1022_f32.wav","3","demo","","","1","","","","","",""
"","","","","","html-keyboard-response","29","276038","0.0-8.0-0.3","https://mcdermottlab.mit.edu/mturk_stimuli/bjmedina/global-music-2025-n_80/sequences/isi_16/len120/seq033_len120_s10_isi-1p0_0p0_16p0.json","10.870000000000001","true","bxp5omnl5xp","","null","<span style=""font-size: 40px"">+</span>","null","fixation","","","","","","","","",""
"","","","","","audio-button-response","30","280066","0.0-8.0-1.3","https://mcdermottlab.mit.edu/mturk_stimuli/bjmedina/global-music-2025-n_80/sequences/isi_16/len120/seq033_len120_s10_isi-1p0_0p0_16p0.json","10.870000000000001","true","bxp5omnl5xp","","3168","https://mcdermottlab.mit.edu/mturk_stimuli/bjmedina/mem_exp_v05/mem_stim_1021_f32.wav","0","demo","","","0","","","","","",""
"","","","","","html-keyboard-response","31","280125","0.0-8.0-0.4","https://mcdermottlab.mit.edu/mturk_stimuli/bjmedina/global-music-2025-n_80/sequences/isi_16/len120/seq033_len120_s10_isi-1p0_0p0_16p0.json","10.870000000000001","true","bxp5omnl5xp","","null","<span style=""font-size: 40px"">+</span>","null","fixation","","","","","","","","",""
"","","","","","audio-button-response","32","283058","0.0-8.0-1.4","https://mcdermottlab.mit.edu/mturk_stimuli/bjmedina/global-music-2025-n_80/sequences/isi_16/len120/seq033_len120_s10_isi-1p0_0p0_16p0.json","10.870000000000001","true","bxp5omnl5xp","","2931","https://mcdermottlab.mit.edu/mturk_stimuli/bjmedina/mem_exp_v05/mem_stim_1023_f32.wav","0","demo","","","1","","","","","",""
"","","","","","html-keyboard-response","33","283117","0.0-8.0-0.5","https://mcdermottlab.mit.edu/mturk_stimuli/bjmedina/global-music-2025-n_80/sequences/isi_16/len120/seq033_len120_s10_isi-1p0_0p0_16p0.json","10.870000000000001","true","bxp5omnl5xp","","null","<span style=""font-size: 40px"">+</span>","null","fixation","","","","","","","","",""
"","","","","","audio-button-response","34","293560","0.0-8.0-1.5","https://mcdermottlab.mit.edu/mturk_stimuli/bjmedina/global-music-2025-n_80/sequences/isi_16/len120/seq033_len120_s10_isi-1p0_0p0_16p0.json","10.870000000000001","true","bxp5omnl5xp","","9709","https://mcdermottlab.mit.edu/mturk_stimuli/bjmedina/mem_exp_v05/mem_stim_1020_f32.wav","0","demo","","","0","","","","","",""
"","","","","","html-keyboard-response","35","293624","0.0-8.0-0.6","https://mcdermottlab.mit.edu/mturk_stimuli/bjmedina/global-music-2025-n_80/sequences/isi_16/len120/seq033_len120_s10_isi-1p0_0p0_16p0.json","10.870000000000001","true","bxp5omnl5xp","","null","<span style=""font-size: 40px"">+</span>","null","fixation","","","","","","","","",""
"","","","","","audio-button-response","36","299110","0.0-8.0-1.6","https://mcdermottlab.mit.edu/mturk_stimuli/bjmedina/global-music-2025-n_80/sequences/isi_16/len120/seq033_len120_s10_isi-1p0_0p0_16p0.json","10.870000000000001","true","bxp5omnl5xp","","4640","https://mcdermottlab.mit.edu/mturk_stimuli/bjmedina/mem_exp_v05/mem_stim_1019_f32.wav","0","demo","","","0","","","","","",""
"","","","","","html-keyboard-response","37","299163","0.0-8.0-0.7","https://mcdermottlab.mit.edu/mturk_stimuli/bjmedina/global-music-2025-n_80/sequences/isi_16/len120/seq033_len120_s10_isi-1p0_0p0_16p0.json","10.870000000000001","true","bxp5omnl5xp","","null","<span style=""font-size: 40px"">+</span>","null","fixation","","","","","","","","",""
"","","","","","audio-button-response","38","302458","0.0-8.0-1.7","https://mcdermottlab.mit.edu/mturk_stimuli/bjmedina/global-music-2025-n_80/sequences/isi_16/len120/seq033_len120_s10_isi-1p0_0p0_16p0.json","10.870000000000001","true","bxp5omnl5xp","","3291","https://mcdermottlab.mit.edu/mturk_stimuli/bjmedina/mem_exp_v05/mem_stim_1021_f32.wav","0","demo","","","1","","","","","",""
"","","","","","html-keyboard-response","39","318590","0.0-9.0","https://mcdermottlab.mit.edu/mturk_stimuli/bjmedina/global-music-2025-n_80/sequences/isi_16/len120/seq033_len120_s10_isi-1p0_0p0_16p0.json","10.870000000000001","true","bxp5omnl5xp","","16131","<p>You are now ready to start the experiment. Press SPACE when you are ready to start.</p>"," ","","","","","","","","","",""
"","","","","","html-keyboard-response","40","318651","0.0-10.0-1.0","https://mcdermottlab.mit.edu/mturk_stimuli/bjmedina/global-music-2025-n_80/sequences/isi_16/len120/seq033_len120_s10_isi-1p0_0p0_16p0.json","10.870000000000001","true","bxp5omnl5xp","","null","<span style=""font-size: 40px"">+</span>","null","","","","","","","","","",""
"","","","","","audio-button-response","41","322409","0.0-10.0-2.0","https://mcdermottlab.mit.edu/mturk_stimuli/bjmedina/global-music-2025-n_80/sequences/isi_16/len120/seq033_len120_s10_isi-1p0_0p0_16p0.json","10.870000000000001","true","bxp5omnl5xp","","3091","https://mcdermottlab.mit.edu/mturk_stimuli/bjmedina/global-music-2025-n_80/mem_stim_18.wav","0","main","","","false","mem_stim_18.wav","false","-1","","1","correct_rejection"
"","","","","","html-keyboard-response","42","322479","0.0-10.0-1.1","https://mcdermottlab.mit.edu/mturk_stimuli/bjmedina/global-music-2025-n_80/sequences/isi_16/len120/seq033_len120_s10_isi-1p0_0p0_16p0.json","10.870000000000001","true","bxp5omnl5xp","","null","<span style=""font-size: 40px"">+</span>","null","","","","","","","","","",""
"","","","","","audio-button-response","43","326264","0.0-10.0-2.1","https://mcdermottlab.mit.edu/mturk_stimuli/bjmedina/global-music-2025-n_80/sequences/isi_16/len120/seq033_len120_s10_isi-1p0_0p0_16p0.json","10.870000000000001","true","bxp5omnl5xp","","3208","https://mcdermottlab.mit.edu/mturk_stimuli/bjmedina/global-music-2025-n_80/mem_stim_36.wav","0","main","","","false","mem_stim_36.wav","false","-1","","1","correct_rejection"
"","","","","","html-keyboard-response","44","326325","0.0-10.0-1.2","https://mcdermottlab.mit.edu/mturk_stimuli/bjmedina/global-music-2025-n_80/sequences/isi_16/len120/seq033_len120_s10_isi-1p0_0p0_16p0.json","10.870000000000001","true","bxp5omnl5xp","","null","<span style=""font-size: 40px"">+</span>","null","","","","","","","","","",""
"","","","","","audio-button-response","45","329464","0.0-10.0-2.2","https://mcdermottlab.mit.edu/mturk_stimuli/bjmedina/global-music-2025-n_80/sequences/isi_16/len120/seq033_len120_s10_isi-1p0_0p0_16p0.json","10.870000000000001","true","bxp5omnl5xp","","2720","https://mcdermottlab.mit.edu/mturk_stimuli/bjmedina/global-music-2025-n_80/mem_stim_54.wav","0","main","","","false","mem_stim_54.wav","false","-1","","1","correct_rejection"
"","","","","","html-keyboard-response","46","329534","0.0-10.0-1.3","https://mcdermottlab.mit.edu/mturk_stimuli/bjmedina/global-music-2025-n_80/sequences/isi_16/len120/seq033_len120_s10_isi-1p0_0p0_16p0.json","10.870000000000001","true","bxp5omnl5xp","","null","<span style=""font-size: 40px"">+</span>","null","","","","","","","","","",""
"","","","","","audio-button-response","47","333271","0.0-10.0-2.3","https://mcdermottlab.mit.edu/mturk_stimuli/bjmedina/global-music-2025-n_80/sequences/isi_16/len120/seq033_len120_s10_isi-1p0_0p0_16p0.json","10.870000000000001","true","bxp5omnl5xp","","2811","https://mcdermottlab.mit.edu/mturk_stimuli/bjmedina/global-music-2025-n_80/mem_stim_74.wav","0","main","","","false","mem_stim_74.wav","false","-1","","1","correct_rejection"
"","","","","","html-keyboard-response","48","333340","0.0-10.0-1.4","https://mcdermottlab.mit.edu/mturk_stimuli/bjmedina/global-music-2025-n_80/sequences/isi_16/len120/seq033_len120_s10_isi-1p0_0p0_16p0.json","10.870000000000001","true","bxp5omnl5xp","","null","<span style=""font-size: 40px"">+</span>","null","","","","","","","","","",""
"","","","","","audio-button-response","49","337295","0.0-10.0-2.4","https://mcdermottlab.mit.edu/mturk_stimuli/bjmedina/global-music-2025-n_80/sequences/isi_16/len120/seq033_len120_s10_isi-1p0_0p0_16p0.json","10.870000000000001","true","bxp5omnl5xp","","3032","https://mcdermottlab.mit.edu/mturk_stimuli/bjmedina/global-music-2025-n_80/mem_stim_37.wav","0","main","","","false","mem_stim_37.wav","false","-1","","1","correct_rejection"
"","","","","","html-keyboard-response","50","337361","0.0-10.0-1.5","https://mcdermottlab.mit.edu/mturk_stimuli/bjmedina/global-music-2025-n_80/sequences/isi_16/len120/seq033_len120_s10_isi-1p0_0p0_16p0.json","10.870000000000001","true","bxp5omnl5xp","","null","<span style=""font-size: 40px"">+</span>","null","","","","","","","","","",""
"","","","","","audio-button-response","51","342397","0.0-10.0-2.5","https://mcdermottlab.mit.edu/mturk_stimuli/bjmedina/global-music-2025-n_80/sequences/isi_16/len120/seq033_len120_s10_isi-1p0_0p0_16p0.json","10.870000000000001","true","bxp5omnl5xp","","3909","https://mcdermottlab.mit.edu/mturk_stimuli/bjmedina/global-music-2025-n_80/mem_stim_31.wav","1","main","","","false","mem_stim_31.wav","false","-1","","0","false_alarm"
"","","","","","html-keyboard-response","52","342459","0.0-10.0-1.6","https://mcdermottlab.mit.edu/mturk_stimuli/bjmedina/global-music-2025-n_80/sequences/isi_16/len120/seq033_len120_s10_isi-1p0_0p0_16p0.json","10.870000000000001","true","bxp5omnl5xp","","null","<span style=""font-size: 40px"">+</span>","null","","","","","","","","","",""
"","","","","","audio-button-response","53","349335","0.0-10.0-2.6","https://mcdermottlab.mit.edu/mturk_stimuli/bjmedina/global-music-2025-n_80/sequences/isi_16/len120/seq033_len120_s10_isi-1p0_0p0_16p0.json","10.870000000000001","true","bxp5omnl5xp","","6232","https://mcdermottlab.mit.edu/mturk_stimuli/bjmedina/global-music-2025-n_80/mem_stim_21.wav","0","main","","","false","mem_stim_21.wav","false","-1","","1","correct_rejection"
"","","","","","html-keyboard-response","54","349403","0.0-10.0-1.7","https://mcdermottlab.mit.edu/mturk_stimuli/bjmedina/global-music-2025-n_80/sequences/isi_16/len120/seq033_len120_s10_isi-1p0_0p0_16p0.json","10.870000000000001","true","bxp5omnl5xp","","null","<span style=""font-size: 40px"">+</span>","null","","","","","","","","","",""
"","","","","","audio-button-response","55","353024","0.0-10.0-2.7","https://mcdermottlab.mit.edu/mturk_stimuli/bjmedina/global-music-2025-n_80/sequences/isi_16/len120/seq033_len120_s10_isi-1p0_0p0_16p0.json","10.870000000000001","true","bxp5omnl5xp","","2960","https://mcdermottlab.mit.edu/mturk_stimuli/bjmedina/global-music-2025-n_80/mem_stim_76.wav","0","main","","","false","mem_stim_76.wav","false","-1","","1","correct_rejection"
"","","","","","html-keyboard-response","56","353082","0.0-10.0-1.8","https://mcdermottlab.mit.edu/mturk_stimuli/bjmedina/global-music-2025-n_80/sequences/isi_16/len120/seq033_len120_s10_isi-1p0_0p0_16p0.json","10.870000000000001","true","bxp5omnl5xp","","null","<span style=""font-size: 40px"">+</span>","null","","","","","","","","","",""
"","","","","","audio-button-response","57","356037","0.0-10.0-2.8","https://mcdermottlab.mit.edu/mturk_stimuli/bjmedina/global-music-2025-n_80/sequences/isi_16/len120/seq033_len120_s10_isi-1p0_0p0_16p0.json","10.870000000000001","true","bxp5omnl5xp","","2949","https://mcdermottlab.mit.edu/mturk_stimuli/bjmedina/global-music-2025-n_80/mem_stim_76.wav","3","main","","","true","mem_stim_76.wav","true","0","","0","miss"
"","","","","","html-keyboard-response","58","356103","0.0-10.0-1.9","https://mcdermottlab.mit.edu/mturk_stimuli/bjmedina/global-music-2025-n_80/sequences/isi_16/len120/seq033_len120_s10_isi-1p0_0p0_16p0.json","10.870000000000001","true","bxp5omnl5xp","","null","<span style=""font-size: 40px"">+</span>","null","","","","","","","","","",""
"","","","","","audio-button-response","59","360045","0.0-10.0-2.9","https://mcdermottlab.mit.edu/mturk_stimuli/bjmedina/global-music-2025-n_80/sequences/isi_16/len120/seq033_len120_s10_isi-1p0_0p0_16p0.json","10.870000000000001","true","bxp5omnl5xp","","3491","https://mcdermottlab.mit.edu/mturk_stimuli/bjmedina/global-music-2025-n_80/mem_stim_35.wav","0","main","","","false","mem_stim_35.wav","false","-1","","1","correct_rejection"
"","","","","","html-keyboard-response","60","360117","0.0-10.0-1.10","https://mcdermottlab.mit.edu/mturk_stimuli/bjmedina/global-music-2025-n_80/sequences/isi_16/len120/seq033_len120_s10_isi-1p0_0p0_16p0.json","10.870000000000001","true","bxp5omnl5xp","","null","<span style=""font-size: 40px"">+</span>","null","","","","","","","","","",""
"","","","","","audio-button-response","61","364339","0.0-10.0-2.10","https://mcdermottlab.mit.edu/mturk_stimuli/bjmedina/global-music-2025-n_80/sequences/isi_16/len120/seq033_len120_s10_isi-1p0_0p0_16p0.json","10.870000000000001","true","bxp5omnl5xp","","3800","https://mcdermottlab.mit.edu/mturk_stimuli/bjmedina/global-music-2025-n_80/mem_stim_4.wav","2","main","","","false","mem_stim_4.wav","false","-1","","1","correct_rejection"
"","","","","","html-keyboard-response","62","364401","0.0-10.0-1.11","https://mcdermottlab.mit.edu/mturk_stimuli/bjmedina/global-music-2025-n_80/sequences/isi_16/len120/seq033_len120_s10_isi-1p0_0p0_16p0.json","10.870000000000001","true","bxp5omnl5xp","","null","<span style=""font-size: 40px"">+</span>","null","","","","","","","","","",""
"","","","","","audio-button-response","63","368577","0.0-10.0-2.11","https://mcdermottlab.mit.edu/mturk_stimuli/bjmedina/global-music-2025-n_80/sequences/isi_16/len120/seq033_len120_s10_isi-1p0_0p0_16p0.json","10.870000000000001","true","bxp5omnl5xp","","3741","https://mcdermottlab.mit.edu/mturk_stimuli/bjmedina/global-music-2025-n_80/mem_stim_32.wav","0","main","","","false","mem_stim_32.wav","false","-1","","1","correct_rejection"
"","","","","","html-keyboard-response","64","368637","0.0-10.0-1.12","https://mcdermottlab.mit.edu/mturk_stimuli/bjmedina/global-music-2025-n_80/sequences/isi_16/len120/seq033_len120_s10_isi-1p0_0p0_16p0.json","10.870000000000001","true","bxp5omnl5xp","","null","<span style=""font-size: 40px"">+</span>","null","","","","","","","","","",""
"","","","","","audio-button-response","65","373068","0.0-10.0-2.12","https://mcdermottlab.mit.edu/mturk_stimuli/bjmedina/global-music-2025-n_80/sequences/isi_16/len120/seq033_len120_s10_isi-1p0_0p0_16p0.json","10.870000000000001","true","bxp5omnl5xp","","3560","https://mcdermottlab.mit.edu/mturk_stimuli/bjmedina/global-music-2025-n_80/mem_stim_71.wav","1","main","","","false","mem_stim_71.wav","false","-1","","0","false_alarm"
"","","","","","html-keyboard-response","66","373129","0.0-10.0-1.13","https://mcdermottlab.mit.edu/mturk_stimuli/bjmedina/global-music-2025-n_80/sequences/isi_16/len120/seq033_len120_s10_isi-1p0_0p0_16p0.json","10.870000000000001","true","bxp5omnl5xp","","null","<span style=""font-size: 40px"">+</span>","null","","","","","","","","","",""
"","","","","","audio-button-response","67","376792","0.0-10.0-2.13","https://mcdermottlab.mit.edu/mturk_stimuli/bjmedina/global-music-2025-n_80/sequences/isi_16/len120/seq033_len120_s10_isi-1p0_0p0_16p0.json","10.870000000000001","true","bxp5omnl5xp","","2840","https://mcdermottlab.mit.edu/mturk_stimuli/bjmedina/global-music-2025-n_80/mem_stim_19.wav","2","main","","","false","mem_stim_19.wav","false","-1","","1","correct_rejection"
"","","","","","html-keyboard-response","68","376862","0.0-10.0-1.14","https://mcdermottlab.mit.edu/mturk_stimuli/bjmedina/global-music-2025-n_80/sequences/isi_16/len120/seq033_len120_s10_isi-1p0_0p0_16p0.json","10.870000000000001","true","bxp5omnl5xp","","null","<span style=""font-size: 40px"">+</span>","null","","","","","","","","","",""
"","","","","","audio-button-response","69","379783","0.0-10.0-2.14","https://mcdermottlab.mit.edu/mturk_stimuli/bjmedina/global-music-2025-n_80/sequences/isi_16/len120/seq033_len120_s10_isi-1p0_0p0_16p0.json","10.870000000000001","true","bxp5omnl5xp","","2920","https://mcdermottlab.mit.edu/mturk_stimuli/bjmedina/global-music-2025-n_80/mem_stim_19.wav","3","main","","","true","mem_stim_19.wav","true","0","","0","miss"
"","","","","","html-keyboard-response","70","379852","0.0-10.0-1.15","https://mcdermottlab.mit.edu/mturk_stimuli/bjmedina/global-music-2025-n_80/sequences/isi_16/len120/seq033_len120_s10_isi-1p0_0p0_16p0.json","10.870000000000001","true","bxp5omnl5xp","","null","<span style=""font-size: 40px"">+</span>","null","","","","","","","","","",""
"","","","","","audio-button-response","71","383878","0.0-10.0-2.15","https://mcdermottlab.mit.edu/mturk_stimuli/bjmedina/global-music-2025-n_80/sequences/isi_16/len120/seq033_len120_s10_isi-1p0_0p0_16p0.json","10.870000000000001","true","bxp5omnl5xp","","3189","https://mcdermottlab.mit.edu/mturk_stimuli/bjmedina/global-music-2025-n_80/mem_stim_33.wav","0","main","","","false","mem_stim_33.wav","false","-1","","1","correct_rejection"
"","","","","","html-keyboard-response","72","383939","0.0-10.0-1.16","https://mcdermottlab.mit.edu/mturk_stimuli/bjmedina/global-music-2025-n_80/sequences/isi_16/len120/seq033_len120_s10_isi-1p0_0p0_16p0.json","10.870000000000001","true","bxp5omnl5xp","","null","<span style=""font-size: 40px"">+</span>","null","","","","","","","","","",""
"","","","","","audio-button-response","73","387361","0.0-10.0-2.16","https://mcdermottlab.mit.edu/mturk_stimuli/bjmedina/global-music-2025-n_80/sequences/isi_16/len120/seq033_len120_s10_isi-1p0_0p0_16p0.json","10.870000000000001","true","bxp5omnl5xp","","3011","https://mcdermottlab.mit.edu/mturk_stimuli/bjmedina/global-music-2025-n_80/mem_stim_3.wav","0","main","","","false","mem_stim_3.wav","false","-1","","1","correct_rejection"
"","","","","","html-keyboard-response","74","387432","0.0-10.0-1.17","https://mcdermottlab.mit.edu/mturk_stimuli/bjmedina/global-music-2025-n_80/sequences/isi_16/len120/seq033_len120_s10_isi-1p0_0p0_16p0.json","10.870000000000001","true","bxp5omnl5xp","","null","<span style=""font-size: 40px"">+</span>","null","","","","","","","","","",""
"","","","","","audio-button-response","75","390274","0.0-10.0-2.17","https://mcdermottlab.mit.edu/mturk_stimuli/bjmedina/global-music-2025-n_80/sequences/isi_16/len120/seq033_len120_s10_isi-1p0_0p0_16p0.json","10.870000000000001","true","bxp5omnl5xp","","2840","https://mcdermottlab.mit.edu/mturk_stimuli/bjmedina/global-music-2025-n_80/mem_stim_18.wav","3","main","","","true","mem_stim_18.wav","false","16","","0","miss"
"","","","","","html-keyboard-response","76","390342","0.0-10.0-1.18","https://mcdermottlab.mit.edu/mturk_stimuli/bjmedina/global-music-2025-n_80/sequences/isi_16/len120/seq033_len120_s10_isi-1p0_0p0_16p0.json","10.870000000000001","true","bxp5omnl5xp","","null","<span style=""font-size: 40px"">+</span>","null","","","","","","","","","",""
"","","","","","audio-button-response","77","394102","0.0-10.0-2.18","https://mcdermottlab.mit.edu/mturk_stimuli/bjmedina/global-music-2025-n_80/sequences/isi_16/len120/seq033_len120_s10_isi-1p0_0p0_16p0.json","10.870000000000001","true","bxp5omnl5xp","","3309","https://mcdermottlab.mit.edu/mturk_stimuli/bjmedina/global-music-2025-n_80/mem_stim_12.wav","0","main","","","false","mem_stim_12.wav","false","-1","","1","correct_rejection"
"","","","","","html-keyboard-response","78","394171","0.0-10.0-1.19","https://mcdermottlab.mit.edu/mturk_stimuli/bjmedina/global-music-2025-n_80/sequences/isi_16/len120/seq033_len120_s10_isi-1p0_0p0_16p0.json","10.870000000000001","true","bxp5omnl5xp","","null","<span style=""font-size: 40px"">+</span>","null","","","","","","","","","",""
"","","","","","audio-button-response","79","397761","0.0-10.0-2.19","https://mcdermottlab.mit.edu/mturk_stimuli/bjmedina/global-music-2025-n_80/sequences/isi_16/len120/seq033_len120_s10_isi-1p0_0p0_16p0.json","10.870000000000001","true","bxp5omnl5xp","","3589","https://mcdermottlab.mit.edu/mturk_stimuli/bjmedina/global-music-2025-n_80/mem_stim_54.wav","2","main","","","true","mem_stim_54.wav","false","16","","0","miss"
"","","","","","html-keyboard-response","80","397825","0.0-10.0-1.20","https://mcdermottlab.mit.edu/mturk_stimuli/bjmedina/global-music-2025-n_80/sequences/isi_16/len120/seq033_len120_s10_isi-1p0_0p0_16p0.json","10.870000000000001","true","bxp5omnl5xp","","null","<span style=""font-size: 40px"">+</span>","null","","","","","","","","","",""
"","","","","","audio-button-response","81","401587","0.0-10.0-2.20","https://mcdermottlab.mit.edu/mturk_stimuli/bjmedina/global-music-2025-n_80/sequences/isi_16/len120/seq033_len120_s10_isi-1p0_0p0_16p0.json","10.870000000000001","true","bxp5omnl5xp","","3360","https://mcdermottlab.mit.edu/mturk_stimuli/bjmedina/global-music-2025-n_80/mem_stim_25.wav","0","main","","","false","mem_stim_25.wav","false","-1","","1","correct_rejection"
"","","","","","html-keyboard-response","82","401652","0.0-10.0-1.21","https://mcdermottlab.mit.edu/mturk_stimuli/bjmedina/global-music-2025-n_80/sequences/isi_16/len120/seq033_len120_s10_isi-1p0_0p0_16p0.json","10.870000000000001","true","bxp5omnl5xp","","null","<span style=""font-size: 40px"">+</span>","null","","","","","","","","","",""
"","","","","","audio-button-response","83","406386","0.0-10.0-2.21","https://mcdermottlab.mit.edu/mturk_stimuli/bjmedina/global-music-2025-n_80/sequences/isi_16/len120/seq033_len120_s10_isi-1p0_0p0_16p0.json","10.870000000000001","true","bxp5omnl5xp","","3659","https://mcdermottlab.mit.edu/mturk_stimuli/bjmedina/global-music-2025-n_80/mem_stim_39.wav","0","main","","","false","mem_stim_39.wav","false","-1","","1","correct_rejection"
"","","","","","html-keyboard-response","84","406445","0.0-10.0-1.22","https://mcdermottlab.mit.edu/mturk_stimuli/bjmedina/global-music-2025-n_80/sequences/isi_16/len120/seq033_len120_s10_isi-1p0_0p0_16p0.json","10.870000000000001","true","bxp5omnl5xp","","null","<span style=""font-size: 40px"">+</span>","null","","","","","","","","","",""
"","","","","","audio-button-response","85","409717","0.0-10.0-2.22","https://mcdermottlab.mit.edu/mturk_stimuli/bjmedina/global-music-2025-n_80/sequences/isi_16/len120/seq033_len120_s10_isi-1p0_0p0_16p0.json","10.870000000000001","true","bxp5omnl5xp","","3269","https://mcdermottlab.mit.edu/mturk_stimuli/bjmedina/global-music-2025-n_80/mem_stim_31.wav","3","main","","","true","mem_stim_31.wav","false","16","","0","miss"
"","","","","","html-keyboard-response","86","409785","0.0-10.0-1.23","https://mcdermottlab.mit.edu/mturk_stimuli/bjmedina/global-music-2025-n_80/sequences/isi_16/len120/seq033_len120_s10_isi-1p0_0p0_16p0.json","10.870000000000001","true","bxp5omnl5xp","","null","<span style=""font-size: 40px"">+</span>","null","","","","","","","","","",""
"","","","","","audio-button-response","87","413584","0.0-10.0-2.23","https://mcdermottlab.mit.edu/mturk_stimuli/bjmedina/global-music-2025-n_80/sequences/isi_16/len120/seq033_len120_s10_isi-1p0_0p0_16p0.json","10.870000000000001","true","bxp5omnl5xp","","3328","https://mcdermottlab.mit.edu/mturk_stimuli/bjmedina/global-music-2025-n_80/mem_stim_69.wav","0","main","","","false","mem_stim_69.wav","false","-1","","1","correct_rejection"
"","","","","","html-keyboard-response","88","413644","0.0-10.0-1.24","https://mcdermottlab.mit.edu/mturk_stimuli/bjmedina/global-music-2025-n_80/sequences/isi_16/len120/seq033_len120_s10_isi-1p0_0p0_16p0.json","10.870000000000001","true","bxp5omnl5xp","","null","<span style=""font-size: 40px"">+</span>","null","","","","","","","","","",""
"","","","","","audio-button-response","89","417394","0.0-10.0-2.24","https://mcdermottlab.mit.edu/mturk_stimuli/bjmedina/global-music-2025-n_80/sequences/isi_16/len120/seq033_len120_s10_isi-1p0_0p0_16p0.json","10.870000000000001","true","bxp5omnl5xp","","3331","https://mcdermottlab.mit.edu/mturk_stimuli/bjmedina/global-music-2025-n_80/mem_stim_23.wav","0","main","","","false","mem_stim_23.wav","false","-1","","1","correct_rejection"
"","","","","","html-keyboard-response","90","417463","0.0-10.0-1.25","https://mcdermottlab.mit.edu/mturk_stimuli/bjmedina/global-music-2025-n_80/sequences/isi_16/len120/seq033_len120_s10_isi-1p0_0p0_16p0.json","10.870000000000001","true","bxp5omnl5xp","","null","<span style=""font-size: 40px"">+</span>","null","","","","","","","","","",""
"","","","","","audio-button-response","91","421817","0.0-10.0-2.25","https://mcdermottlab.mit.edu/mturk_stimuli/bjmedina/global-music-2025-n_80/sequences/isi_16/len120/seq033_len120_s10_isi-1p0_0p0_16p0.json","10.870000000000001","true","bxp5omnl5xp","","3472","https://mcdermottlab.mit.edu/mturk_stimuli/bjmedina/global-music-2025-n_80/mem_stim_41.wav","2","main","","","false","mem_stim_41.wav","false","-1","","1","correct_rejection"
"","","","","","html-keyboard-response","92","421879","0.0-10.0-1.26","https://mcdermottlab.mit.edu/mturk_stimuli/bjmedina/global-music-2025-n_80/sequences/isi_16/len120/seq033_len120_s10_isi-1p0_0p0_16p0.json","10.870000000000001","true","bxp5omnl5xp","","null","<span style=""font-size: 40px"">+</span>","null","","","","","","","","","",""
"","","","","","audio-button-response","93","424696","0.0-10.0-2.26","https://mcdermottlab.mit.edu/mturk_stimuli/bjmedina/global-music-2025-n_80/sequences/isi_16/len120/seq033_len120_s10_isi-1p0_0p0_16p0.json","10.870000000000001","true","bxp5omnl5xp","","2811","https://mcdermottlab.mit.edu/mturk_stimuli/bjmedina/global-music-2025-n_80/mem_stim_35.wav","3","main","","","true","mem_stim_35.wav","false","16","","0","miss"
"","","","","","html-keyboard-response","94","424755","0.0-10.0-1.27","https://mcdermottlab.mit.edu/mturk_stimuli/bjmedina/global-music-2025-n_80/sequences/isi_16/len120/seq033_len120_s10_isi-1p0_0p0_16p0.json","10.870000000000001","true","bxp5omnl5xp","","null","<span style=""font-size: 40px"">+</span>","null","","","","","","","","","",""
"","","","","","audio-button-response","95","428738","0.0-10.0-2.27","https://mcdermottlab.mit.edu/mturk_stimuli/bjmedina/global-music-2025-n_80/sequences/isi_16/len120/seq033_len120_s10_isi-1p0_0p0_16p0.json","10.870000000000001","true","bxp5omnl5xp","","3981","https://mcdermottlab.mit.edu/mturk_stimuli/bjmedina/global-music-2025-n_80/mem_stim_4.wav","2","main","","","true","mem_stim_4.wav","false","16","","0","miss"
"","","","","","html-keyboard-response","96","428811","0.0-10.0-1.28","https://mcdermottlab.mit.edu/mturk_stimuli/bjmedina/global-music-2025-n_80/sequences/isi_16/len120/seq033_len120_s10_isi-1p0_0p0_16p0.json","10.870000000000001","true","bxp5omnl5xp","","null","<span style=""font-size: 40px"">+</span>","null","","","","","","","","","",""
"","","","","","audio-button-response","97","433364","0.0-10.0-2.28","https://mcdermottlab.mit.edu/mturk_stimuli/bjmedina/global-music-2025-n_80/sequences/isi_16/len120/seq033_len120_s10_isi-1p0_0p0_16p0.json","10.870000000000001","true","bxp5omnl5xp","","3629","https://mcdermottlab.mit.edu/mturk_stimuli/bjmedina/global-music-2025-n_80/mem_stim_44.wav","0","main","","","false","mem_stim_44.wav","false","-1","","1","correct_rejection"
"","","","","","html-keyboard-response","98","433438","0.0-10.0-1.29","https://mcdermottlab.mit.edu/mturk_stimuli/bjmedina/global-music-2025-n_80/sequences/isi_16/len120/seq033_len120_s10_isi-1p0_0p0_16p0.json","10.870000000000001","true","bxp5omnl5xp","","null","<span style=""font-size: 40px"">+</span>","null","","","","","","","","","",""
"","","","","","audio-button-response","99","437010","0.0-10.0-2.29","https://mcdermottlab.mit.edu/mturk_stimuli/bjmedina/global-music-2025-n_80/sequences/isi_16/len120/seq033_len120_s10_isi-1p0_0p0_16p0.json","10.870000000000001","true","bxp5omnl5xp","","3571","https://mcdermottlab.mit.edu/mturk_stimuli/bjmedina/global-music-2025-n_80/mem_stim_71.wav","2","main","","","true","mem_stim_71.wav","false","16","","0","miss"
"","","","","","html-keyboard-response","100","437085","0.0-10.0-1.30","https://mcdermottlab.mit.edu/mturk_stimuli/bjmedina/global-music-2025-n_80/sequences/isi_16/len120/seq033_len120_s10_isi-1p0_0p0_16p0.json","10.870000000000001","true","bxp5omnl5xp","","null","<span style=""font-size: 40px"">+</span>","null","","","","","","","","","",""
"","","","","","audio-button-response","101","441866","0.0-10.0-2.30","https://mcdermottlab.mit.edu/mturk_stimuli/bjmedina/global-music-2025-n_80/sequences/isi_16/len120/seq033_len120_s10_isi-1p0_0p0_16p0.json","10.870000000000001","true","bxp5omnl5xp","","4360","https://mcdermottlab.mit.edu/mturk_stimuli/bjmedina/global-music-2025-n_80/mem_stim_51.wav","1","main","","","false","mem_stim_51.wav","false","-1","","0","false_alarm"
"","","","","","html-keyboard-response","102","441934","0.0-10.0-1.31","https://mcdermottlab.mit.edu/mturk_stimuli/bjmedina/global-music-2025-n_80/sequences/isi_16/len120/seq033_len120_s10_isi-1p0_0p0_16p0.json","10.870000000000001","true","bxp5omnl5xp","","null","<span style=""font-size: 40px"">+</span>","null","","","","","","","","","",""
"","","","","","audio-button-response","103","445850","0.0-10.0-2.31","https://mcdermottlab.mit.edu/mturk_stimuli/bjmedina/global-music-2025-n_80/sequences/isi_16/len120/seq033_len120_s10_isi-1p0_0p0_16p0.json","10.870000000000001","true","bxp5omnl5xp","","3221","https://mcdermottlab.mit.edu/mturk_stimuli/bjmedina/global-music-2025-n_80/mem_stim_55.wav","0","main","","","false","mem_stim_55.wav","false","-1","","1","correct_rejection"
"","","","","","html-keyboard-response","104","445908","0.0-10.0-1.32","https://mcdermottlab.mit.edu/mturk_stimuli/bjmedina/global-music-2025-n_80/sequences/isi_16/len120/seq033_len120_s10_isi-1p0_0p0_16p0.json","10.870000000000001","true","bxp5omnl5xp","","null","<span style=""font-size: 40px"">+</span>","null","","","","","","","","","",""
"","","","","","audio-button-response","105","451059","0.0-10.0-2.32","https://mcdermottlab.mit.edu/mturk_stimuli/bjmedina/global-music-2025-n_80/sequences/isi_16/len120/seq033_len120_s10_isi-1p0_0p0_16p0.json","10.870000000000001","true","bxp5omnl5xp","","4720","https://mcdermottlab.mit.edu/mturk_stimuli/bjmedina/global-music-2025-n_80/mem_stim_57.wav","0","main","","","false","mem_stim_57.wav","false","-1","","1","correct_rejection"
"","","","","","html-keyboard-response","106","451123","0.0-10.0-1.33","https://mcdermottlab.mit.edu/mturk_stimuli/bjmedina/global-music-2025-n_80/sequences/isi_16/len120/seq033_len120_s10_isi-1p0_0p0_16p0.json","10.870000000000001","true","bxp5omnl5xp","","null","<span style=""font-size: 40px"">+</span>","null","","","","","","","","","",""
"","","","","","audio-button-response","107","455303","0.0-10.0-2.33","https://mcdermottlab.mit.edu/mturk_stimuli/bjmedina/global-music-2025-n_80/sequences/isi_16/len120/seq033_len120_s10_isi-1p0_0p0_16p0.json","10.870000000000001","true","bxp5omnl5xp","","3448","https://mcdermottlab.mit.edu/mturk_stimuli/bjmedina/global-music-2025-n_80/mem_stim_38.wav","0","main","","","false","mem_stim_38.wav","false","-1","","1","correct_rejection"
"","","","","","html-keyboard-response","108","455361","0.0-10.0-1.34","https://mcdermottlab.mit.edu/mturk_stimuli/bjmedina/global-music-2025-n_80/sequences/isi_16/len120/seq033_len120_s10_isi-1p0_0p0_16p0.json","10.870000000000001","true","bxp5omnl5xp","","null","<span style=""font-size: 40px"">+</span>","null","","","","","","","","","",""
"","","","","","audio-button-response","109","459195","0.0-10.0-2.34","https://mcdermottlab.mit.edu/mturk_stimuli/bjmedina/global-music-2025-n_80/sequences/isi_16/len120/seq033_len120_s10_isi-1p0_0p0_16p0.json","10.870000000000001","true","bxp5omnl5xp","","2891","https://mcdermottlab.mit.edu/mturk_stimuli/bjmedina/global-music-2025-n_80/mem_stim_0.wav","2","main","","","false","mem_stim_0.wav","false","-1","","1","correct_rejection"
"","","","","","html-keyboard-response","110","459266","0.0-10.0-1.35","https://mcdermottlab.mit.edu/mturk_stimuli/bjmedina/global-music-2025-n_80/sequences/isi_16/len120/seq033_len120_s10_isi-1p0_0p0_16p0.json","10.870000000000001","true","bxp5omnl5xp","","null","<span style=""font-size: 40px"">+</span>","null","","","","","","","","","",""
"","","","","","audio-button-response","111","462675","0.0-10.0-2.35","https://mcdermottlab.mit.edu/mturk_stimuli/bjmedina/global-music-2025-n_80/sequences/isi_16/len120/seq033_len120_s10_isi-1p0_0p0_16p0.json","10.870000000000001","true","bxp5omnl5xp","","3011","https://mcdermottlab.mit.edu/mturk_stimuli/bjmedina/global-music-2025-n_80/mem_stim_15.wav","0","main","","","false","mem_stim_15.wav","false","-1","","1","correct_rejection"
"","","","","","html-keyboard-response","112","462743","0.0-10.0-1.36","https://mcdermottlab.mit.edu/mturk_stimuli/bjmedina/global-music-2025-n_80/sequences/isi_16/len120/seq033_len120_s10_isi-1p0_0p0_16p0.json","10.870000000000001","true","bxp5omnl5xp","","null","<span style=""font-size: 40px"">+</span>","null","","","","","","","","","",""
"","","","","","audio-button-response","113","466875","0.0-10.0-2.36","https://mcdermottlab.mit.edu/mturk_stimuli/bjmedina/global-music-2025-n_80/sequences/isi_16/len120/seq033_len120_s10_isi-1p0_0p0_16p0.json","10.870000000000001","true","bxp5omnl5xp","","3709","https://mcdermottlab.mit.edu/mturk_stimuli/bjmedina/global-music-2025-n_80/mem_stim_50.wav","1","main","","","false","mem_stim_50.wav","false","-1","","0","false_alarm"
"","","","","","html-keyboard-response","114","466935","0.0-10.0-1.37","https://mcdermottlab.mit.edu/mturk_stimuli/bjmedina/global-music-2025-n_80/sequences/isi_16/len120/seq033_len120_s10_isi-1p0_0p0_16p0.json","10.870000000000001","true","bxp5omnl5xp","","null","<span style=""font-size: 40px"">+</span>","null","","","","","","","","","",""
"","","","","","audio-button-response","115","470781","0.0-10.0-2.37","https://mcdermottlab.mit.edu/mturk_stimuli/bjmedina/global-music-2025-n_80/sequences/isi_16/len120/seq033_len120_s10_isi-1p0_0p0_16p0.json","10.870000000000001","true","bxp5omnl5xp","","3008","https://mcdermottlab.mit.edu/mturk_stimuli/bjmedina/global-music-2025-n_80/mem_stim_63.wav","0","main","","","false","mem_stim_63.wav","false","-1","","1","correct_rejection"
"","","","","","html-keyboard-response","116","470847","0.0-10.0-1.38","https://mcdermottlab.mit.edu/mturk_stimuli/bjmedina/global-music-2025-n_80/sequences/isi_16/len120/seq033_len120_s10_isi-1p0_0p0_16p0.json","10.870000000000001","true","bxp5omnl5xp","","null","<span style=""font-size: 40px"">+</span>","null","","","","","","","","","",""
"","","","","","audio-button-response","117","474547","0.0-10.0-2.38","https://mcdermottlab.mit.edu/mturk_stimuli/bjmedina/global-music-2025-n_80/sequences/isi_16/len120/seq033_len120_s10_isi-1p0_0p0_16p0.json","10.870000000000001","true","bxp5omnl5xp","","3280","https://mcdermottlab.mit.edu/mturk_stimuli/bjmedina/global-music-2025-n_80/mem_stim_45.wav","0","main","","","false","mem_stim_45.wav","false","-1","","1","correct_rejection"
"","","","","","html-keyboard-response","118","474615","0.0-10.0-1.39","https://mcdermottlab.mit.edu/mturk_stimuli/bjmedina/global-music-2025-n_80/sequences/isi_16/len120/seq033_len120_s10_isi-1p0_0p0_16p0.json","10.870000000000001","true","bxp5omnl5xp","","null","<span style=""font-size: 40px"">+</span>","null","","","","","","","","","",""
"","","","","","audio-button-response","119","479157","0.0-10.0-2.39","https://mcdermottlab.mit.edu/mturk_stimuli/bjmedina/global-music-2025-n_80/sequences/isi_16/len120/seq033_len120_s10_isi-1p0_0p0_16p0.json","10.870000000000001","true","bxp5omnl5xp","","3760","https://mcdermottlab.mit.edu/mturk_stimuli/bjmedina/global-music-2025-n_80/mem_stim_28.wav","1","main","","","false","mem_stim_28.wav","false","-1","","0","false_alarm"
"","","","","","html-keyboard-response","120","479222","0.0-10.0-1.40","https://mcdermottlab.mit.edu/mturk_stimuli/bjmedina/global-music-2025-n_80/sequences/isi_16/len120/seq033_len120_s10_isi-1p0_0p0_16p0.json","10.870000000000001","true","bxp5omnl5xp","","null","<span style=""font-size: 40px"">+</span>","null","","","","","","","","","",""
"","","","","","audio-button-response","121","483362","0.0-10.0-2.40","https://mcdermottlab.mit.edu/mturk_stimuli/bjmedina/global-music-2025-n_80/sequences/isi_16/len120/seq033_len120_s10_isi-1p0_0p0_16p0.json","10.870000000000001","true","bxp5omnl5xp","","3181","https://mcdermottlab.mit.edu/mturk_stimuli/bjmedina/global-music-2025-n_80/mem_stim_34.wav","0","main","","","false","mem_stim_34.wav","false","-1","","1","correct_rejection"
"","","","","","html-keyboard-response","122","483428","0.0-10.0-1.41","https://mcdermottlab.mit.edu/mturk_stimuli/bjmedina/global-music-2025-n_80/sequences/isi_16/len120/seq033_len120_s10_isi-1p0_0p0_16p0.json","10.870000000000001","true","bxp5omnl5xp","","null","<span style=""font-size: 40px"">+</span>","null","","","","","","","","","",""
"","","","","","audio-button-response","123","486479","0.0-10.0-2.41","https://mcdermottlab.mit.edu/mturk_stimuli/bjmedina/global-music-2025-n_80/sequences/isi_16/len120/seq033_len120_s10_isi-1p0_0p0_16p0.json","10.870000000000001","true","bxp5omnl5xp","","3051","https://mcdermottlab.mit.edu/mturk_stimuli/bjmedina/global-music-2025-n_80/mem_stim_23.wav","0","main","","","true","mem_stim_23.wav","false","16","","0","miss"
"","","","","","html-keyboard-response","124","486548","0.0-10.0-1.42","https://mcdermottlab.mit.edu/mturk_stimuli/bjmedina/global-music-2025-n_80/sequences/isi_16/len120/seq033_len120_s10_isi-1p0_0p0_16p0.json","10.870000000000001","true","bxp5omnl5xp","","null","<span style=""font-size: 40px"">+</span>","null","","","","","","","","","",""
"","","","","","audio-button-response","125","490004","0.0-10.0-2.42","https://mcdermottlab.mit.edu/mturk_stimuli/bjmedina/global-music-2025-n_80/sequences/isi_16/len120/seq033_len120_s10_isi-1p0_0p0_16p0.json","10.870000000000001","true","bxp5omnl5xp","","3461","https://mcdermottlab.mit.edu/mturk_stimuli/bjmedina/global-music-2025-n_80/mem_stim_41.wav","2","main","","","true","mem_stim_41.wav","false","16","","0","miss"
"","","","","","html-keyboard-response","126","490085","0.0-10.0-1.43","https://mcdermottlab.mit.edu/mturk_stimuli/bjmedina/global-music-2025-n_80/sequences/isi_16/len120/seq033_len120_s10_isi-1p0_0p0_16p0.json","10.870000000000001","true","bxp5omnl5xp","","null","<span style=""font-size: 40px"">+</span>","null","","","","","","","","","",""
"","","","","","audio-button-response","127","493973","0.0-10.0-2.43","https://mcdermottlab.mit.edu/mturk_stimuli/bjmedina/global-music-2025-n_80/sequences/isi_16/len120/seq033_len120_s10_isi-1p0_0p0_16p0.json","10.870000000000001","true","bxp5omnl5xp","","3261","https://mcdermottlab.mit.edu/mturk_stimuli/bjmedina/global-music-2025-n_80/mem_stim_58.wav","0","main","","","false","mem_stim_58.wav","false","-1","","1","correct_rejection"
"","","","","","html-keyboard-response","128","494041","0.0-10.0-1.44","https://mcdermottlab.mit.edu/mturk_stimuli/bjmedina/global-music-2025-n_80/sequences/isi_16/len120/seq033_len120_s10_isi-1p0_0p0_16p0.json","10.870000000000001","true","bxp5omnl5xp","","null","<span style=""font-size: 40px"">+</span>","null","","","","","","","","","",""
"","","","","","audio-button-response","129","498533","0.0-10.0-2.44","https://mcdermottlab.mit.edu/mturk_stimuli/bjmedina/global-music-2025-n_80/sequences/isi_16/len120/seq033_len120_s10_isi-1p0_0p0_16p0.json","10.870000000000001","true","bxp5omnl5xp","","3731","https://mcdermottlab.mit.edu/mturk_stimuli/bjmedina/global-music-2025-n_80/mem_stim_20.wav","1","main","","","false","mem_stim_20.wav","false","-1","","0","false_alarm"
"","","","","","html-keyboard-response","130","498603","0.0-10.0-1.45","https://mcdermottlab.mit.edu/mturk_stimuli/bjmedina/global-music-2025-n_80/sequences/isi_16/len120/seq033_len120_s10_isi-1p0_0p0_16p0.json","10.870000000000001","true","bxp5omnl5xp","","null","<span style=""font-size: 40px"">+</span>","null","","","","","","","","","",""
"","","","","","audio-button-response","131","502216","0.0-10.0-2.45","https://mcdermottlab.mit.edu/mturk_stimuli/bjmedina/global-music-2025-n_80/sequences/isi_16/len120/seq033_len120_s10_isi-1p0_0p0_16p0.json","10.870000000000001","true","bxp5omnl5xp","","3200","https://mcdermottlab.mit.edu/mturk_stimuli/bjmedina/global-music-2025-n_80/mem_stim_48.wav","2","main","","","false","mem_stim_48.wav","false","-1","","1","correct_rejection"
"","","","","","html-keyboard-response","132","502294","0.0-10.0-1.46","https://mcdermottlab.mit.edu/mturk_stimuli/bjmedina/global-music-2025-n_80/sequences/isi_16/len120/seq033_len120_s10_isi-1p0_0p0_16p0.json","10.870000000000001","true","bxp5omnl5xp","","null","<span style=""font-size: 40px"">+</span>","null","","","","","","","","","",""
"","","","","","audio-button-response","133","507045","0.0-10.0-2.46","https://mcdermottlab.mit.edu/mturk_stimuli/bjmedina/global-music-2025-n_80/sequences/isi_16/len120/seq033_len120_s10_isi-1p0_0p0_16p0.json","10.870000000000001","true","bxp5omnl5xp","","4029","https://mcdermottlab.mit.edu/mturk_stimuli/bjmedina/global-music-2025-n_80/mem_stim_77.wav","2","main","","","false","mem_stim_77.wav","false","-1","","1","correct_rejection"
"","","","","","html-keyboard-response","134","507116","0.0-10.0-1.47","https://mcdermottlab.mit.edu/mturk_stimuli/bjmedina/global-music-2025-n_80/sequences/isi_16/len120/seq033_len120_s10_isi-1p0_0p0_16p0.json","10.870000000000001","true","bxp5omnl5xp","","null","<span style=""font-size: 40px"">+</span>","null","","","","","","","","","",""
"","","","","","audio-button-response","135","511433","0.0-10.0-2.47","https://mcdermottlab.mit.edu/mturk_stimuli/bjmedina/global-music-2025-n_80/sequences/isi_16/len120/seq033_len120_s10_isi-1p0_0p0_16p0.json","10.870000000000001","true","bxp5omnl5xp","","3400","https://mcdermottlab.mit.edu/mturk_stimuli/bjmedina/global-music-2025-n_80/mem_stim_22.wav","0","main","","","false","mem_stim_22.wav","false","-1","","1","correct_rejection"
"","","","","","html-keyboard-response","136","511500","0.0-10.0-1.48","https://mcdermottlab.mit.edu/mturk_stimuli/bjmedina/global-music-2025-n_80/sequences/isi_16/len120/seq033_len120_s10_isi-1p0_0p0_16p0.json","10.870000000000001","true","bxp5omnl5xp","","null","<span style=""font-size: 40px"">+</span>","null","","","","","","","","","",""
"","","","","","audio-button-response","137","514366","0.0-10.0-2.48","https://mcdermottlab.mit.edu/mturk_stimuli/bjmedina/global-music-2025-n_80/sequences/isi_16/len120/seq033_len120_s10_isi-1p0_0p0_16p0.json","10.870000000000001","true","bxp5omnl5xp","","2861","https://mcdermottlab.mit.edu/mturk_stimuli/bjmedina/global-music-2025-n_80/mem_stim_55.wav","3","main","","","true","mem_stim_55.wav","false","16","","0","miss"
"","","","","","html-keyboard-response","138","514441","0.0-10.0-1.49","https://mcdermottlab.mit.edu/mturk_stimuli/bjmedina/global-music-2025-n_80/sequences/isi_16/len120/seq033_len120_s10_isi-1p0_0p0_16p0.json","10.870000000000001","true","bxp5omnl5xp","","null","<span style=""font-size: 40px"">+</span>","null","","","","","","","","","",""
"","","","","","audio-button-response","139","517433","0.0-10.0-2.49","https://mcdermottlab.mit.edu/mturk_stimuli/bjmedina/global-music-2025-n_80/sequences/isi_16/len120/seq033_len120_s10_isi-1p0_0p0_16p0.json","10.870000000000001","true","bxp5omnl5xp","","2989","https://mcdermottlab.mit.edu/mturk_stimuli/bjmedina/global-music-2025-n_80/mem_stim_57.wav","2","main","","","true","mem_stim_57.wav","false","16","","0","miss"
"","","","","","html-keyboard-response","140","517510","0.0-10.0-1.50","https://mcdermottlab.mit.edu/mturk_stimuli/bjmedina/global-music-2025-n_80/sequences/isi_16/len120/seq033_len120_s10_isi-1p0_0p0_16p0.json","10.870000000000001","true","bxp5omnl5xp","","null","<span style=""font-size: 40px"">+</span>","null","","","","","","","","","",""
"","","","","","audio-button-response","141","530097","0.0-10.0-2.50","https://mcdermottlab.mit.edu/mturk_stimuli/bjmedina/global-music-2025-n_80/sequences/isi_16/len120/seq033_len120_s10_isi-1p0_0p0_16p0.json","10.870000000000001","true","bxp5omnl5xp","","12581","https://mcdermottlab.mit.edu/mturk_stimuli/bjmedina/global-music-2025-n_80/mem_stim_38.wav","0","main","","","true","mem_stim_38.wav","false","16","","0","miss"
"","","","","","html-keyboard-response","142","530168","0.0-10.0-1.51","https://mcdermottlab.mit.edu/mturk_stimuli/bjmedina/global-music-2025-n_80/sequences/isi_16/len120/seq033_len120_s10_isi-1p0_0p0_16p0.json","10.870000000000001","true","bxp5omnl5xp","","null","<span style=""font-size: 40px"">+</span>","null","","","","","","","","","",""
"","","","","","audio-button-response","143","533669","0.0-10.0-2.51","https://mcdermottlab.mit.edu/mturk_stimuli/bjmedina/global-music-2025-n_80/sequences/isi_16/len120/seq033_len120_s10_isi-1p0_0p0_16p0.json","10.870000000000001","true","bxp5omnl5xp","","2859","https://mcdermottlab.mit.edu/mturk_stimuli/bjmedina/global-music-2025-n_80/mem_stim_43.wav","0","main","","","false","mem_stim_43.wav","false","-1","","1","correct_rejection"
"","","","","","html-keyboard-response","144","533734","0.0-10.0-1.52","https://mcdermottlab.mit.edu/mturk_stimuli/bjmedina/global-music-2025-n_80/sequences/isi_16/len120/seq033_len120_s10_isi-1p0_0p0_16p0.json","10.870000000000001","true","bxp5omnl5xp","","null","<span style=""font-size: 40px"">+</span>","null","","","","","","","","","",""
"","","","","","audio-button-response","145","536490","0.0-10.0-2.52","https://mcdermottlab.mit.edu/mturk_stimuli/bjmedina/global-music-2025-n_80/sequences/isi_16/len120/seq033_len120_s10_isi-1p0_0p0_16p0.json","10.870000000000001","true","bxp5omnl5xp","","2749","https://mcdermottlab.mit.edu/mturk_stimuli/bjmedina/global-music-2025-n_80/mem_stim_43.wav","3","main","","","true","mem_stim_43.wav","true","0","","0","miss"
"","","","","","html-keyboard-response","146","536549","0.0-10.0-1.53","https://mcdermottlab.mit.edu/mturk_stimuli/bjmedina/global-music-2025-n_80/sequences/isi_16/len120/seq033_len120_s10_isi-1p0_0p0_16p0.json","10.870000000000001","true","bxp5omnl5xp","","null","<span style=""font-size: 40px"">+</span>","null","","","","","","","","","",""
"","","","","","audio-button-response","147","540461","0.0-10.0-2.53","https://mcdermottlab.mit.edu/mturk_stimuli/bjmedina/global-music-2025-n_80/sequences/isi_16/len120/seq033_len120_s10_isi-1p0_0p0_16p0.json","10.870000000000001","true","bxp5omnl5xp","","3368","https://mcdermottlab.mit.edu/mturk_stimuli/bjmedina/global-music-2025-n_80/mem_stim_17.wav","0","main","","","false","mem_stim_17.wav","false","-1","","1","correct_rejection"
"","","","","","html-keyboard-response","148","540542","0.0-10.0-1.54","https://mcdermottlab.mit.edu/mturk_stimuli/bjmedina/global-music-2025-n_80/sequences/isi_16/len120/seq033_len120_s10_isi-1p0_0p0_16p0.json","10.870000000000001","true","bxp5omnl5xp","","null","<span style=""font-size: 40px"">+</span>","null","","","","","","","","","",""
"","","","","","audio-button-response","149","544054","0.0-10.0-2.54","https://mcdermottlab.mit.edu/mturk_stimuli/bjmedina/global-music-2025-n_80/sequences/isi_16/len120/seq033_len120_s10_isi-1p0_0p0_16p0.json","10.870000000000001","true","bxp5omnl5xp","","3061","https://mcdermottlab.mit.edu/mturk_stimuli/bjmedina/global-music-2025-n_80/mem_stim_9.wav","1","main","","","false","mem_stim_9.wav","false","-1","","0","false_alarm"
"","","","","","html-keyboard-response","150","544131","0.0-10.0-1.55","https://mcdermottlab.mit.edu/mturk_stimuli/bjmedina/global-music-2025-n_80/sequences/isi_16/len120/seq033_len120_s10_isi-1p0_0p0_16p0.json","10.870000000000001","true","bxp5omnl5xp","","null","<span style=""font-size: 40px"">+</span>","null","","","","","","","","","",""
"","","","","","audio-button-response","151","547638","0.0-10.0-2.55","https://mcdermottlab.mit.edu/mturk_stimuli/bjmedina/global-music-2025-n_80/sequences/isi_16/len120/seq033_len120_s10_isi-1p0_0p0_16p0.json","10.870000000000001","true","bxp5omnl5xp","","3069","https://mcdermottlab.mit.edu/mturk_stimuli/bjmedina/global-music-2025-n_80/mem_stim_24.wav","0","main","","","false","mem_stim_24.wav","false","-1","","1","correct_rejection"
"","","","","","html-keyboard-response","152","547709","0.0-10.0-1.56","https://mcdermottlab.mit.edu/mturk_stimuli/bjmedina/global-music-2025-n_80/sequences/isi_16/len120/seq033_len120_s10_isi-1p0_0p0_16p0.json","10.870000000000001","true","bxp5omnl5xp","","null","<span style=""font-size: 40px"">+</span>","null","","","","","","","","","",""
"","","","","","audio-button-response","153","551194","0.0-10.0-2.56","https://mcdermottlab.mit.edu/mturk_stimuli/bjmedina/global-music-2025-n_80/sequences/isi_16/len120/seq033_len120_s10_isi-1p0_0p0_16p0.json","10.870000000000001","true","bxp5omnl5xp","","3051","https://mcdermottlab.mit.edu/mturk_stimuli/bjmedina/global-music-2025-n_80/mem_stim_75.wav","0","main","","","false","mem_stim_75.wav","false","-1","","1","correct_rejection"
"","","","","","html-keyboard-response","154","551259","0.0-10.0-1.57","https://mcdermottlab.mit.edu/mturk_stimuli/bjmedina/global-music-2025-n_80/sequences/isi_16/len120/seq033_len120_s10_isi-1p0_0p0_16p0.json","10.870000000000001","true","bxp5omnl5xp","","null","<span style=""font-size: 40px"">+</span>","null","","","","","","","","","",""
"","","","","","audio-button-response","155","555359","0.0-10.0-2.57","https://mcdermottlab.mit.edu/mturk_stimuli/bjmedina/global-music-2025-n_80/sequences/isi_16/len120/seq033_len120_s10_isi-1p0_0p0_16p0.json","10.870000000000001","true","bxp5omnl5xp","","3160","https://mcdermottlab.mit.edu/mturk_stimuli/bjmedina/global-music-2025-n_80/mem_stim_10.wav","1","main","","","false","mem_stim_10.wav","false","-1","","0","false_alarm"
"","","","","","html-keyboard-response","156","555424","0.0-10.0-1.58","https://mcdermottlab.mit.edu/mturk_stimuli/bjmedina/global-music-2025-n_80/sequences/isi_16/len120/seq033_len120_s10_isi-1p0_0p0_16p0.json","10.870000000000001","true","bxp5omnl5xp","","null","<span style=""font-size: 40px"">+</span>","null","","","","","","","","","",""
"","","","","","audio-button-response","157","559322","0.0-10.0-2.58","https://mcdermottlab.mit.edu/mturk_stimuli/bjmedina/global-music-2025-n_80/sequences/isi_16/len120/seq033_len120_s10_isi-1p0_0p0_16p0.json","10.870000000000001","true","bxp5omnl5xp","","2981","https://mcdermottlab.mit.edu/mturk_stimuli/bjmedina/global-music-2025-n_80/mem_stim_47.wav","0","main","","","false","mem_stim_47.wav","false","-1","","1","correct_rejection"
"","","","","","html-keyboard-response","158","559405","0.0-10.0-1.59","https://mcdermottlab.mit.edu/mturk_stimuli/bjmedina/global-music-2025-n_80/sequences/isi_16/len120/seq033_len120_s10_isi-1p0_0p0_16p0.json","10.870000000000001","true","bxp5omnl5xp","","null","<span style=""font-size: 40px"">+</span>","null","","","","","","","","","",""
"","","","","","audio-button-response","159","562868","0.0-10.0-2.59","https://mcdermottlab.mit.edu/mturk_stimuli/bjmedina/global-music-2025-n_80/sequences/isi_16/len120/seq033_len120_s10_isi-1p0_0p0_16p0.json","10.870000000000001","true","bxp5omnl5xp","","3008","https://mcdermottlab.mit.edu/mturk_stimuli/bjmedina/global-music-2025-n_80/mem_stim_1.wav","2","main","","","false","mem_stim_1.wav","false","-1","","1","correct_rejection"
"","","","","","html-keyboard-response","160","562941","0.0-10.0-1.60","https://mcdermottlab.mit.edu/mturk_stimuli/bjmedina/global-music-2025-n_80/sequences/isi_16/len120/seq033_len120_s10_isi-1p0_0p0_16p0.json","10.870000000000001","true","bxp5omnl5xp","","null","<span style=""font-size: 40px"">+</span>","null","","","","","","","","","",""
"","","","","","audio-button-response","161","566966","0.0-10.0-2.60","https://mcdermottlab.mit.edu/mturk_stimuli/bjmedina/global-music-2025-n_80/sequences/isi_16/len120/seq033_len120_s10_isi-1p0_0p0_16p0.json","10.870000000000001","true","bxp5omnl5xp","","3200","https://mcdermottlab.mit.edu/mturk_stimuli/bjmedina/global-music-2025-n_80/mem_stim_14.wav","2","main","","","false","mem_stim_14.wav","false","-1","","1","correct_rejection"
"","","","","","html-keyboard-response","162","567030","0.0-10.0-1.61","https://mcdermottlab.mit.edu/mturk_stimuli/bjmedina/global-music-2025-n_80/sequences/isi_16/len120/seq033_len120_s10_isi-1p0_0p0_16p0.json","10.870000000000001","true","bxp5omnl5xp","","null","<span style=""font-size: 40px"">+</span>","null","","","","","","","","","",""
"","","","","","audio-button-response","163","570441","0.0-10.0-2.61","https://mcdermottlab.mit.edu/mturk_stimuli/bjmedina/global-music-2025-n_80/sequences/isi_16/len120/seq033_len120_s10_isi-1p0_0p0_16p0.json","10.870000000000001","true","bxp5omnl5xp","","3411","https://mcdermottlab.mit.edu/mturk_stimuli/bjmedina/global-music-2025-n_80/mem_stim_20.wav","2","main","","","true","mem_stim_20.wav","false","16","","0","miss"
"","","","","","html-keyboard-response","164","570514","0.0-10.0-1.62","https://mcdermottlab.mit.edu/mturk_stimuli/bjmedina/global-music-2025-n_80/sequences/isi_16/len120/seq033_len120_s10_isi-1p0_0p0_16p0.json","10.870000000000001","true","bxp5omnl5xp","","null","<span style=""font-size: 40px"">+</span>","null","","","","","","","","","",""
"","","","","","audio-button-response","165","574889","0.0-10.0-2.62","https://mcdermottlab.mit.edu/mturk_stimuli/bjmedina/global-music-2025-n_80/sequences/isi_16/len120/seq033_len120_s10_isi-1p0_0p0_16p0.json","10.870000000000001","true","bxp5omnl5xp","","3531","https://mcdermottlab.mit.edu/mturk_stimuli/bjmedina/global-music-2025-n_80/mem_stim_42.wav","1","main","","","false","mem_stim_42.wav","false","-1","","0","false_alarm"
"","","","","","html-keyboard-response","166","574957","0.0-10.0-1.63","https://mcdermottlab.mit.edu/mturk_stimuli/bjmedina/global-music-2025-n_80/sequences/isi_16/len120/seq033_len120_s10_isi-1p0_0p0_16p0.json","10.870000000000001","true","bxp5omnl5xp","","null","<span style=""font-size: 40px"">+</span>","null","","","","","","","","","",""
"","","","","","audio-button-response","167","578094","0.0-10.0-2.63","https://mcdermottlab.mit.edu/mturk_stimuli/bjmedina/global-music-2025-n_80/sequences/isi_16/len120/seq033_len120_s10_isi-1p0_0p0_16p0.json","10.870000000000001","true","bxp5omnl5xp","","3141","https://mcdermottlab.mit.edu/mturk_stimuli/bjmedina/global-music-2025-n_80/mem_stim_42.wav","3","main","","","true","mem_stim_42.wav","true","0","","0","miss"
"","","","","","html-keyboard-response","168","578168","0.0-10.0-1.64","https://mcdermottlab.mit.edu/mturk_stimuli/bjmedina/global-music-2025-n_80/sequences/isi_16/len120/seq033_len120_s10_isi-1p0_0p0_16p0.json","10.870000000000001","true","bxp5omnl5xp","","null","<span style=""font-size: 40px"">+</span>","null","","","","","","","","","",""
"","","","","","audio-button-response","169","581495","0.0-10.0-2.64","https://mcdermottlab.mit.edu/mturk_stimuli/bjmedina/global-music-2025-n_80/sequences/isi_16/len120/seq033_len120_s10_isi-1p0_0p0_16p0.json","10.870000000000001","true","bxp5omnl5xp","","3320","https://mcdermottlab.mit.edu/mturk_stimuli/bjmedina/global-music-2025-n_80/mem_stim_22.wav","3","main","","","true","mem_stim_22.wav","false","16","","0","miss"
"","","","","","html-keyboard-response","170","581572","0.0-10.0-1.65","https://mcdermottlab.mit.edu/mturk_stimuli/bjmedina/global-music-2025-n_80/sequences/isi_16/len120/seq033_len120_s10_isi-1p0_0p0_16p0.json","10.870000000000001","true","bxp5omnl5xp","","null","<span style=""font-size: 40px"">+</span>","null","","","","","","","","","",""
"","","","","","audio-button-response","171","586403","0.0-10.0-2.65","https://mcdermottlab.mit.edu/mturk_stimuli/bjmedina/global-music-2025-n_80/sequences/isi_16/len120/seq033_len120_s10_isi-1p0_0p0_16p0.json","10.870000000000001","true","bxp5omnl5xp","","4421","https://mcdermottlab.mit.edu/mturk_stimuli/bjmedina/global-music-2025-n_80/mem_stim_72.wav","0","main","","","false","mem_stim_72.wav","false","-1","","1","correct_rejection"
"","","","","","html-keyboard-response","172","586465","0.0-10.0-1.66","https://mcdermottlab.mit.edu/mturk_stimuli/bjmedina/global-music-2025-n_80/sequences/isi_16/len120/seq033_len120_s10_isi-1p0_0p0_16p0.json","10.870000000000001","true","bxp5omnl5xp","","null","<span style=""font-size: 40px"">+</span>","null","","","","","","","","","",""
"","","","","","audio-button-response","173","589476","0.0-10.0-2.66","https://mcdermottlab.mit.edu/mturk_stimuli/bjmedina/global-music-2025-n_80/sequences/isi_16/len120/seq033_len120_s10_isi-1p0_0p0_16p0.json","10.870000000000001","true","bxp5omnl5xp","","3011","https://mcdermottlab.mit.edu/mturk_stimuli/bjmedina/global-music-2025-n_80/mem_stim_72.wav","3","main","","","true","mem_stim_72.wav","true","0","","0","miss"
"","","","","","html-keyboard-response","174","589537","0.0-10.0-1.67","https://mcdermottlab.mit.edu/mturk_stimuli/bjmedina/global-music-2025-n_80/sequences/isi_16/len120/seq033_len120_s10_isi-1p0_0p0_16p0.json","10.870000000000001","true","bxp5omnl5xp","","null","<span style=""font-size: 40px"">+</span>","null","","","","","","","","","",""
"","","","","","audio-button-response","175","593277","0.0-10.0-2.67","https://mcdermottlab.mit.edu/mturk_stimuli/bjmedina/global-music-2025-n_80/sequences/isi_16/len120/seq033_len120_s10_isi-1p0_0p0_16p0.json","10.870000000000001","true","bxp5omnl5xp","","3099","https://mcdermottlab.mit.edu/mturk_stimuli/bjmedina/global-music-2025-n_80/mem_stim_52.wav","1","main","","","false","mem_stim_52.wav","false","-1","","0","false_alarm"
"","","","","","html-keyboard-response","176","593350","0.0-10.0-1.68","https://mcdermottlab.mit.edu/mturk_stimuli/bjmedina/global-music-2025-n_80/sequences/isi_16/len120/seq033_len120_s10_isi-1p0_0p0_16p0.json","10.870000000000001","true","bxp5omnl5xp","","null","<span style=""font-size: 40px"">+</span>","null","","","","","","","","","",""
"","","","","","audio-button-response","177","598058","0.0-10.0-2.68","https://mcdermottlab.mit.edu/mturk_stimuli/bjmedina/global-music-2025-n_80/sequences/isi_16/len120/seq033_len120_s10_isi-1p0_0p0_16p0.json","10.870000000000001","true","bxp5omnl5xp","","4301","https://mcdermottlab.mit.edu/mturk_stimuli/bjmedina/global-music-2025-n_80/mem_stim_26.wav","1","main","","","false","mem_stim_26.wav","false","-1","","0","false_alarm"
"","","","","","html-keyboard-response","178","598130","0.0-10.0-1.69","https://mcdermottlab.mit.edu/mturk_stimuli/bjmedina/global-music-2025-n_80/sequences/isi_16/len120/seq033_len120_s10_isi-1p0_0p0_16p0.json","10.870000000000001","true","bxp5omnl5xp","","null","<span style=""font-size: 40px"">+</span>","null","","","","","","","","","",""
"","","","","","audio-button-response","179","602083","0.0-10.0-2.69","https://mcdermottlab.mit.edu/mturk_stimuli/bjmedina/global-music-2025-n_80/sequences/isi_16/len120/seq033_len120_s10_isi-1p0_0p0_16p0.json","10.870000000000001","true","bxp5omnl5xp","","3211","https://mcdermottlab.mit.edu/mturk_stimuli/bjmedina/global-music-2025-n_80/mem_stim_67.wav","3","main","","","false","mem_stim_67.wav","false","-1","","1","correct_rejection"
"","","","","","html-keyboard-response","180","602158","0.0-10.0-1.70","https://mcdermottlab.mit.edu/mturk_stimuli/bjmedina/global-music-2025-n_80/sequences/isi_16/len120/seq033_len120_s10_isi-1p0_0p0_16p0.json","10.870000000000001","true","bxp5omnl5xp","","null","<span style=""font-size: 40px"">+</span>","null","","","","","","","","","",""
"","","","","","audio-button-response","181","606175","0.0-10.0-2.70","https://mcdermottlab.mit.edu/mturk_stimuli/bjmedina/global-music-2025-n_80/sequences/isi_16/len120/seq033_len120_s10_isi-1p0_0p0_16p0.json","10.870000000000001","true","bxp5omnl5xp","","3541","https://mcdermottlab.mit.edu/mturk_stimuli/bjmedina/global-music-2025-n_80/mem_stim_59.wav","1","main","","","false","mem_stim_59.wav","false","-1","","0","false_alarm"
"","","","","","html-keyboard-response","182","606259","0.0-10.0-1.71","https://mcdermottlab.mit.edu/mturk_stimuli/bjmedina/global-music-2025-n_80/sequences/isi_16/len120/seq033_len120_s10_isi-1p0_0p0_16p0.json","10.870000000000001","true","bxp5omnl5xp","","null","<span style=""font-size: 40px"">+</span>","null","","","","","","","","","",""
"","","","","","audio-button-response","183","609323","0.0-10.0-2.71","https://mcdermottlab.mit.edu/mturk_stimuli/bjmedina/global-music-2025-n_80/sequences/isi_16/len120/seq033_len120_s10_isi-1p0_0p0_16p0.json","10.870000000000001","true","bxp5omnl5xp","","3069","https://mcdermottlab.mit.edu/mturk_stimuli/bjmedina/global-music-2025-n_80/mem_stim_9.wav","2","main","","","true","mem_stim_9.wav","false","16","","0","miss"
"","","","","","html-keyboard-response","184","609391","0.0-10.0-1.72","https://mcdermottlab.mit.edu/mturk_stimuli/bjmedina/global-music-2025-n_80/sequences/isi_16/len120/seq033_len120_s10_isi-1p0_0p0_16p0.json","10.870000000000001","true","bxp5omnl5xp","","null","<span style=""font-size: 40px"">+</span>","null","","","","","","","","","",""
"","","","","","audio-button-response","185","612527","0.0-10.0-2.72","https://mcdermottlab.mit.edu/mturk_stimuli/bjmedina/global-music-2025-n_80/sequences/isi_16/len120/seq033_len120_s10_isi-1p0_0p0_16p0.json","10.870000000000001","true","bxp5omnl5xp","","3131","https://mcdermottlab.mit.edu/mturk_stimuli/bjmedina/global-music-2025-n_80/mem_stim_24.wav","3","main","","","true","mem_stim_24.wav","false","16","","0","miss"
"","","","","","html-keyboard-response","186","612591","0.0-10.0-1.73","https://mcdermottlab.mit.edu/mturk_stimuli/bjmedina/global-music-2025-n_80/sequences/isi_16/len120/seq033_len120_s10_isi-1p0_0p0_16p0.json","10.870000000000001","true","bxp5omnl5xp","","null","<span style=""font-size: 40px"">+</span>","null","","","","","","","","","",""
"","","","","","audio-button-response","187","616301","0.0-10.0-2.73","https://mcdermottlab.mit.edu/mturk_stimuli/bjmedina/global-music-2025-n_80/sequences/isi_16/len120/seq033_len120_s10_isi-1p0_0p0_16p0.json","10.870000000000001","true","bxp5omnl5xp","","3709","https://mcdermottlab.mit.edu/mturk_stimuli/bjmedina/global-music-2025-n_80/mem_stim_75.wav","3","main","","","true","mem_stim_75.wav","false","16","","0","miss"
"","","","","","html-keyboard-response","188","616379","0.0-10.0-1.74","https://mcdermottlab.mit.edu/mturk_stimuli/bjmedina/global-music-2025-n_80/sequences/isi_16/len120/seq033_len120_s10_isi-1p0_0p0_16p0.json","10.870000000000001","true","bxp5omnl5xp","","null","<span style=""font-size: 40px"">+</span>","null","","","","","","","","","",""
"","","","","","audio-button-response","189","619827","0.0-10.0-2.74","https://mcdermottlab.mit.edu/mturk_stimuli/bjmedina/global-music-2025-n_80/sequences/isi_16/len120/seq033_len120_s10_isi-1p0_0p0_16p0.json","10.870000000000001","true","bxp5omnl5xp","","2909","https://mcdermottlab.mit.edu/mturk_stimuli/bjmedina/global-music-2025-n_80/mem_stim_79.wav","0","main","","","false","mem_stim_79.wav","false","-1","","1","correct_rejection"
"","","","","","html-keyboard-response","190","619904","0.0-10.0-1.75","https://mcdermottlab.mit.edu/mturk_stimuli/bjmedina/global-music-2025-n_80/sequences/isi_16/len120/seq033_len120_s10_isi-1p0_0p0_16p0.json","10.870000000000001","true","bxp5omnl5xp","","null","<span style=""font-size: 40px"">+</span>","null","","","","","","","","","",""
"","","","","","audio-button-response","191","622778","0.0-10.0-2.75","https://mcdermottlab.mit.edu/mturk_stimuli/bjmedina/global-music-2025-n_80/sequences/isi_16/len120/seq033_len120_s10_isi-1p0_0p0_16p0.json","10.870000000000001","true","bxp5omnl5xp","","2872","https://mcdermottlab.mit.edu/mturk_stimuli/bjmedina/global-music-2025-n_80/mem_stim_47.wav","3","main","","","true","mem_stim_47.wav","false","16","","0","miss"
"","","","","","html-keyboard-response","192","622858","0.0-10.0-1.76","https://mcdermottlab.mit.edu/mturk_stimuli/bjmedina/global-music-2025-n_80/sequences/isi_16/len120/seq033_len120_s10_isi-1p0_0p0_16p0.json","10.870000000000001","true","bxp5omnl5xp","","null","<span style=""font-size: 40px"">+</span>","null","","","","","","","","","",""
"","","","","","audio-button-response","193","625932","0.0-10.0-2.76","https://mcdermottlab.mit.edu/mturk_stimuli/bjmedina/global-music-2025-n_80/sequences/isi_16/len120/seq033_len120_s10_isi-1p0_0p0_16p0.json","10.870000000000001","true","bxp5omnl5xp","","3080","https://mcdermottlab.mit.edu/mturk_stimuli/bjmedina/global-music-2025-n_80/mem_stim_1.wav","2","main","","","true","mem_stim_1.wav","false","16","","0","miss"
"","","","","","html-keyboard-response","194","626010","0.0-10.0-1.77","https://mcdermottlab.mit.edu/mturk_stimuli/bjmedina/global-music-2025-n_80/sequences/isi_16/len120/seq033_len120_s10_isi-1p0_0p0_16p0.json","10.870000000000001","true","bxp5omnl5xp","","null","<span style=""font-size: 40px"">+</span>","null","","","","","","","","","",""
"","","","","","audio-button-response","195","629271","0.0-10.0-2.77","https://mcdermottlab.mit.edu/mturk_stimuli/bjmedina/global-music-2025-n_80/sequences/isi_16/len120/seq033_len120_s10_isi-1p0_0p0_16p0.json","10.870000000000001","true","bxp5omnl5xp","","2840","https://mcdermottlab.mit.edu/mturk_stimuli/bjmedina/global-music-2025-n_80/mem_stim_8.wav","0","main","","","false","mem_stim_8.wav","false","-1","","1","correct_rejection"
"","","","","","html-keyboard-response","196","629332","0.0-10.0-1.78","https://mcdermottlab.mit.edu/mturk_stimuli/bjmedina/global-music-2025-n_80/sequences/isi_16/len120/seq033_len120_s10_isi-1p0_0p0_16p0.json","10.870000000000001","true","bxp5omnl5xp","","null","<span style=""font-size: 40px"">+</span>","null","","","","","","","","","",""
"","","","","","audio-button-response","197","633070","0.0-10.0-2.78","https://mcdermottlab.mit.edu/mturk_stimuli/bjmedina/global-music-2025-n_80/sequences/isi_16/len120/seq033_len120_s10_isi-1p0_0p0_16p0.json","10.870000000000001","true","bxp5omnl5xp","","3320","https://mcdermottlab.mit.edu/mturk_stimuli/bjmedina/global-music-2025-n_80/mem_stim_27.wav","1","main","","","false","mem_stim_27.wav","false","-1","","0","false_alarm"
"","","","","","html-keyboard-response","198","633133","0.0-10.0-1.79","https://mcdermottlab.mit.edu/mturk_stimuli/bjmedina/global-music-2025-n_80/sequences/isi_16/len120/seq033_len120_s10_isi-1p0_0p0_16p0.json","10.870000000000001","true","bxp5omnl5xp","","null","<span style=""font-size: 40px"">+</span>","null","","","","","","","","","",""
"","","","","","audio-button-response","199","638117","0.0-10.0-2.79","https://mcdermottlab.mit.edu/mturk_stimuli/bjmedina/global-music-2025-n_80/sequences/isi_16/len120/seq033_len120_s10_isi-1p0_0p0_16p0.json","10.870000000000001","true","bxp5omnl5xp","","3869","https://mcdermottlab.mit.edu/mturk_stimuli/bjmedina/global-music-2025-n_80/mem_stim_56.wav","1","main","","","false","mem_stim_56.wav","false","-1","","0","false_alarm"
"","","","","","html-keyboard-response","200","638187","0.0-10.0-1.80","https://mcdermottlab.mit.edu/mturk_stimuli/bjmedina/global-music-2025-n_80/sequences/isi_16/len120/seq033_len120_s10_isi-1p0_0p0_16p0.json","10.870000000000001","true","bxp5omnl5xp","","null","<span style=""font-size: 40px"">+</span>","null","","","","","","","","","",""
"","","","","","audio-button-response","201","641371","0.0-10.0-2.80","https://mcdermottlab.mit.edu/mturk_stimuli/bjmedina/global-music-2025-n_80/sequences/isi_16/len120/seq033_len120_s10_isi-1p0_0p0_16p0.json","10.870000000000001","true","bxp5omnl5xp","","3192","https://mcdermottlab.mit.edu/mturk_stimuli/bjmedina/global-music-2025-n_80/mem_stim_56.wav","3","main","","","true","mem_stim_56.wav","true","0","","0","miss"
"","","","","","html-keyboard-response","202","641443","0.0-10.0-1.81","https://mcdermottlab.mit.edu/mturk_stimuli/bjmedina/global-music-2025-n_80/sequences/isi_16/len120/seq033_len120_s10_isi-1p0_0p0_16p0.json","10.870000000000001","true","bxp5omnl5xp","","null","<span style=""font-size: 40px"">+</span>","null","","","","","","","","","",""
"","","","","","audio-button-response","203","645413","0.0-10.0-2.81","https://mcdermottlab.mit.edu/mturk_stimuli/bjmedina/global-music-2025-n_80/sequences/isi_16/len120/seq033_len120_s10_isi-1p0_0p0_16p0.json","10.870000000000001","true","bxp5omnl5xp","","3440","https://mcdermottlab.mit.edu/mturk_stimuli/bjmedina/global-music-2025-n_80/mem_stim_65.wav","0","main","","","false","mem_stim_65.wav","false","-1","","1","correct_rejection"
"","","","","","html-keyboard-response","204","645493","0.0-10.0-1.82","https://mcdermottlab.mit.edu/mturk_stimuli/bjmedina/global-music-2025-n_80/sequences/isi_16/len120/seq033_len120_s10_isi-1p0_0p0_16p0.json","10.870000000000001","true","bxp5omnl5xp","","null","<span style=""font-size: 40px"">+</span>","null","","","","","","","","","",""
"","","","","","audio-button-response","205","649462","0.0-10.0-2.82","https://mcdermottlab.mit.edu/mturk_stimuli/bjmedina/global-music-2025-n_80/sequences/isi_16/len120/seq033_len120_s10_isi-1p0_0p0_16p0.json","10.870000000000001","true","bxp5omnl5xp","","3080","https://mcdermottlab.mit.edu/mturk_stimuli/bjmedina/global-music-2025-n_80/mem_stim_13.wav","3","main","","","false","mem_stim_13.wav","false","-1","","1","correct_rejection"
"","","","","","html-keyboard-response","206","649530","0.0-10.0-1.83","https://mcdermottlab.mit.edu/mturk_stimuli/bjmedina/global-music-2025-n_80/sequences/isi_16/len120/seq033_len120_s10_isi-1p0_0p0_16p0.json","10.870000000000001","true","bxp5omnl5xp","","null","<span style=""font-size: 40px"">+</span>","null","","","","","","","","","",""
"","","","","","audio-button-response","207","653229","0.0-10.0-2.83","https://mcdermottlab.mit.edu/mturk_stimuli/bjmedina/global-music-2025-n_80/sequences/isi_16/len120/seq033_len120_s10_isi-1p0_0p0_16p0.json","10.870000000000001","true","bxp5omnl5xp","","3269","https://mcdermottlab.mit.edu/mturk_stimuli/bjmedina/global-music-2025-n_80/mem_stim_7.wav","1","main","","","false","mem_stim_7.wav","false","-1","","0","false_alarm"
"","","","","","html-keyboard-response","208","653302","0.0-10.0-1.84","https://mcdermottlab.mit.edu/mturk_stimuli/bjmedina/global-music-2025-n_80/sequences/isi_16/len120/seq033_len120_s10_isi-1p0_0p0_16p0.json","10.870000000000001","true","bxp5omnl5xp","","null","<span style=""font-size: 40px"">+</span>","null","","","","","","","","","",""
"","","","","","audio-button-response","209","657243","0.0-10.0-2.84","https://mcdermottlab.mit.edu/mturk_stimuli/bjmedina/global-music-2025-n_80/sequences/isi_16/len120/seq033_len120_s10_isi-1p0_0p0_16p0.json","10.870000000000001","true","bxp5omnl5xp","","3040","https://mcdermottlab.mit.edu/mturk_stimuli/bjmedina/global-music-2025-n_80/mem_stim_53.wav","0","main","","","false","mem_stim_53.wav","false","-1","","1","correct_rejection"
"","","","","","html-keyboard-response","210","657308","0.0-10.0-1.85","https://mcdermottlab.mit.edu/mturk_stimuli/bjmedina/global-music-2025-n_80/sequences/isi_16/len120/seq033_len120_s10_isi-1p0_0p0_16p0.json","10.870000000000001","true","bxp5omnl5xp","","null","<span style=""font-size: 40px"">+</span>","null","","","","","","","","","",""
"","","","","","audio-button-response","211","660996","0.0-10.0-2.85","https://mcdermottlab.mit.edu/mturk_stimuli/bjmedina/global-music-2025-n_80/sequences/isi_16/len120/seq033_len120_s10_isi-1p0_0p0_16p0.json","10.870000000000001","true","bxp5omnl5xp","","3691","https://mcdermottlab.mit.edu/mturk_stimuli/bjmedina/global-music-2025-n_80/mem_stim_26.wav","3","main","","","true","mem_stim_26.wav","false","16","","0","miss"
"","","","","","html-keyboard-response","212","661068","0.0-10.0-1.86","https://mcdermottlab.mit.edu/mturk_stimuli/bjmedina/global-music-2025-n_80/sequences/isi_16/len120/seq033_len120_s10_isi-1p0_0p0_16p0.json","10.870000000000001","true","bxp5omnl5xp","","null","<span style=""font-size: 40px"">+</span>","null","","","","","","","","","",""
"","","","","","audio-button-response","213","664057","0.0-10.0-2.86","https://mcdermottlab.mit.edu/mturk_stimuli/bjmedina/global-music-2025-n_80/sequences/isi_16/len120/seq033_len120_s10_isi-1p0_0p0_16p0.json","10.870000000000001","true","bxp5omnl5xp","","2992","https://mcdermottlab.mit.edu/mturk_stimuli/bjmedina/global-music-2025-n_80/mem_stim_67.wav","3","main","","","true","mem_stim_67.wav","false","16","","0","miss"
"","","","","","html-keyboard-response","214","664118","0.0-10.0-1.87","https://mcdermottlab.mit.edu/mturk_stimuli/bjmedina/global-music-2025-n_80/sequences/isi_16/len120/seq033_len120_s10_isi-1p0_0p0_16p0.json","10.870000000000001","true","bxp5omnl5xp","","null","<span style=""font-size: 40px"">+</span>","null","","","","","","","","","",""
"","","","","","audio-button-response","215","667316","0.0-10.0-2.87","https://mcdermottlab.mit.edu/mturk_stimuli/bjmedina/global-music-2025-n_80/sequences/isi_16/len120/seq033_len120_s10_isi-1p0_0p0_16p0.json","10.870000000000001","true","bxp5omnl5xp","","3189","https://mcdermottlab.mit.edu/mturk_stimuli/bjmedina/global-music-2025-n_80/mem_stim_59.wav","2","main","","","true","mem_stim_59.wav","false","16","","0","miss"
"","","","","","html-keyboard-response","216","667384","0.0-10.0-1.88","https://mcdermottlab.mit.edu/mturk_stimuli/bjmedina/global-music-2025-n_80/sequences/isi_16/len120/seq033_len120_s10_isi-1p0_0p0_16p0.json","10.870000000000001","true","bxp5omnl5xp","","null","<span style=""font-size: 40px"">+</span>","null","","","","","","","","","",""
"","","","","","audio-button-response","217","671179","0.0-10.0-2.88","https://mcdermottlab.mit.edu/mturk_stimuli/bjmedina/global-music-2025-n_80/sequences/isi_16/len120/seq033_len120_s10_isi-1p0_0p0_16p0.json","10.870000000000001","true","bxp5omnl5xp","","2912","https://mcdermottlab.mit.edu/mturk_stimuli/bjmedina/global-music-2025-n_80/mem_stim_2.wav","0","main","","","false","mem_stim_2.wav","false","-1","","1","correct_rejection"
"","","","","","html-keyboard-response","218","671245","0.0-10.0-1.89","https://mcdermottlab.mit.edu/mturk_stimuli/bjmedina/global-music-2025-n_80/sequences/isi_16/len120/seq033_len120_s10_isi-1p0_0p0_16p0.json","10.870000000000001","true","bxp5omnl5xp","","null","<span style=""font-size: 40px"">+</span>","null","","","","","","","","","",""
"","","","","","audio-button-response","219","674787","0.0-10.0-2.89","https://mcdermottlab.mit.edu/mturk_stimuli/bjmedina/global-music-2025-n_80/sequences/isi_16/len120/seq033_len120_s10_isi-1p0_0p0_16p0.json","10.870000000000001","true","bxp5omnl5xp","","3109","https://mcdermottlab.mit.edu/mturk_stimuli/bjmedina/global-music-2025-n_80/mem_stim_60.wav","0","main","","","false","mem_stim_60.wav","false","-1","","1","correct_rejection"
"","","","","","html-keyboard-response","220","674856","0.0-10.0-1.90","https://mcdermottlab.mit.edu/mturk_stimuli/bjmedina/global-music-2025-n_80/sequences/isi_16/len120/seq033_len120_s10_isi-1p0_0p0_16p0.json","10.870000000000001","true","bxp5omnl5xp","","null","<span style=""font-size: 40px"">+</span>","null","","","","","","","","","",""
"","","","","","audio-button-response","221","678788","0.0-10.0-2.90","https://mcdermottlab.mit.edu/mturk_stimuli/bjmedina/global-music-2025-n_80/sequences/isi_16/len120/seq033_len120_s10_isi-1p0_0p0_16p0.json","10.870000000000001","true","bxp5omnl5xp","","2909","https://mcdermottlab.mit.edu/mturk_stimuli/bjmedina/global-music-2025-n_80/mem_stim_73.wav","2","main","","","false","mem_stim_73.wav","false","-1","","1","correct_rejection"
"","","","","","html-keyboard-response","222","678854","0.0-10.0-1.91","https://mcdermottlab.mit.edu/mturk_stimuli/bjmedina/global-music-2025-n_80/sequences/isi_16/len120/seq033_len120_s10_isi-1p0_0p0_16p0.json","10.870000000000001","true","bxp5omnl5xp","","null","<span style=""font-size: 40px"">+</span>","null","","","","","","","","","",""
"","","","","","audio-button-response","223","683594","0.0-10.0-2.91","https://mcdermottlab.mit.edu/mturk_stimuli/bjmedina/global-music-2025-n_80/sequences/isi_16/len120/seq033_len120_s10_isi-1p0_0p0_16p0.json","10.870000000000001","true","bxp5omnl5xp","","4739","https://mcdermottlab.mit.edu/mturk_stimuli/bjmedina/global-music-2025-n_80/mem_stim_79.wav","2","main","","","true","mem_stim_79.wav","false","16","","0","miss"
"","","","","","html-keyboard-response","224","683660","0.0-10.0-1.92","https://mcdermottlab.mit.edu/mturk_stimuli/bjmedina/global-music-2025-n_80/sequences/isi_16/len120/seq033_len120_s10_isi-1p0_0p0_16p0.json","10.870000000000001","true","bxp5omnl5xp","","null","<span style=""font-size: 40px"">+</span>","null","","","","","","","","","",""
"","","","","","audio-button-response","225","687763","0.0-10.0-2.92","https://mcdermottlab.mit.edu/mturk_stimuli/bjmedina/global-music-2025-n_80/sequences/isi_16/len120/seq033_len120_s10_isi-1p0_0p0_16p0.json","10.870000000000001","true","bxp5omnl5xp","","3251","https://mcdermottlab.mit.edu/mturk_stimuli/bjmedina/global-music-2025-n_80/mem_stim_5.wav","0","main","","","false","mem_stim_5.wav","false","-1","","1","correct_rejection"
"","","","","","html-keyboard-response","226","687841","0.0-10.0-1.93","https://mcdermottlab.mit.edu/mturk_stimuli/bjmedina/global-music-2025-n_80/sequences/isi_16/len120/seq033_len120_s10_isi-1p0_0p0_16p0.json","10.870000000000001","true","bxp5omnl5xp","","null","<span style=""font-size: 40px"">+</span>","null","","","","","","","","","",""
"","","","","","audio-button-response","227","691912","0.0-10.0-2.93","https://mcdermottlab.mit.edu/mturk_stimuli/bjmedina/global-music-2025-n_80/sequences/isi_16/len120/seq033_len120_s10_isi-1p0_0p0_16p0.json","10.870000000000001","true","bxp5omnl5xp","","3451","https://mcdermottlab.mit.edu/mturk_stimuli/bjmedina/global-music-2025-n_80/mem_stim_78.wav","2","main","","","false","mem_stim_78.wav","false","-1","","1","correct_rejection"
"","","","","","html-keyboard-response","228","691982","0.0-10.0-1.94","https://mcdermottlab.mit.edu/mturk_stimuli/bjmedina/global-music-2025-n_80/sequences/isi_16/len120/seq033_len120_s10_isi-1p0_0p0_16p0.json","10.870000000000001","true","bxp5omnl5xp","","null","<span style=""font-size: 40px"">+</span>","null","","","","","","","","","",""
"","","","","","audio-button-response","229","695010","0.0-10.0-2.94","https://mcdermottlab.mit.edu/mturk_stimuli/bjmedina/global-music-2025-n_80/sequences/isi_16/len120/seq033_len120_s10_isi-1p0_0p0_16p0.json","10.870000000000001","true","bxp5omnl5xp","","3021","https://mcdermottlab.mit.edu/mturk_stimuli/bjmedina/global-music-2025-n_80/mem_stim_8.wav","3","main","","","true","mem_stim_8.wav","false","16","","0","miss"
"","","","","","html-keyboard-response","230","695092","0.0-10.0-1.95","https://mcdermottlab.mit.edu/mturk_stimuli/bjmedina/global-music-2025-n_80/sequences/isi_16/len120/seq033_len120_s10_isi-1p0_0p0_16p0.json","10.870000000000001","true","bxp5omnl5xp","","null","<span style=""font-size: 40px"">+</span>","null","","","","","","","","","",""
"","","","","","audio-button-response","231","699451","0.0-10.0-2.95","https://mcdermottlab.mit.edu/mturk_stimuli/bjmedina/global-music-2025-n_80/sequences/isi_16/len120/seq033_len120_s10_isi-1p0_0p0_16p0.json","10.870000000000001","true","bxp5omnl5xp","","3851","https://mcdermottlab.mit.edu/mturk_stimuli/bjmedina/global-music-2025-n_80/mem_stim_62.wav","1","main","","","false","mem_stim_62.wav","false","-1","","0","false_alarm"
"","","","","","html-keyboard-response","232","699521","0.0-10.0-1.96","https://mcdermottlab.mit.edu/mturk_stimuli/bjmedina/global-music-2025-n_80/sequences/isi_16/len120/seq033_len120_s10_isi-1p0_0p0_16p0.json","10.870000000000001","true","bxp5omnl5xp","","null","<span style=""font-size: 40px"">+</span>","null","","","","","","","","","",""
"","","","","","audio-button-response","233","703395","0.0-10.0-2.96","https://mcdermottlab.mit.edu/mturk_stimuli/bjmedina/global-music-2025-n_80/sequences/isi_16/len120/seq033_len120_s10_isi-1p0_0p0_16p0.json","10.870000000000001","true","bxp5omnl5xp","","3429","https://mcdermottlab.mit.edu/mturk_stimuli/bjmedina/global-music-2025-n_80/mem_stim_66.wav","0","main","","","false","mem_stim_66.wav","false","-1","","1","correct_rejection"
"","","","","","html-keyboard-response","234","703471","0.0-10.0-1.97","https://mcdermottlab.mit.edu/mturk_stimuli/bjmedina/global-music-2025-n_80/sequences/isi_16/len120/seq033_len120_s10_isi-1p0_0p0_16p0.json","10.870000000000001","true","bxp5omnl5xp","","null","<span style=""font-size: 40px"">+</span>","null","","","","","","","","","",""
"","","","","","audio-button-response","235","707713","0.0-10.0-2.97","https://mcdermottlab.mit.edu/mturk_stimuli/bjmedina/global-music-2025-n_80/sequences/isi_16/len120/seq033_len120_s10_isi-1p0_0p0_16p0.json","10.870000000000001","true","bxp5omnl5xp","","3320","https://mcdermottlab.mit.edu/mturk_stimuli/bjmedina/global-music-2025-n_80/mem_stim_70.wav","0","main","","","false","mem_stim_70.wav","false","-1","","1","correct_rejection"
"","","","","","html-keyboard-response","236","707791","0.0-10.0-1.98","https://mcdermottlab.mit.edu/mturk_stimuli/bjmedina/global-music-2025-n_80/sequences/isi_16/len120/seq033_len120_s10_isi-1p0_0p0_16p0.json","10.870000000000001","true","bxp5omnl5xp","","null","<span style=""font-size: 40px"">+</span>","null","","","","","","","","","",""
"","","","","","audio-button-response","237","713024","0.0-10.0-2.98","https://mcdermottlab.mit.edu/mturk_stimuli/bjmedina/global-music-2025-n_80/sequences/isi_16/len120/seq033_len120_s10_isi-1p0_0p0_16p0.json","10.870000000000001","true","bxp5omnl5xp","","4408","https://mcdermottlab.mit.edu/mturk_stimuli/bjmedina/global-music-2025-n_80/mem_stim_30.wav","0","main","","","false","mem_stim_30.wav","false","-1","","1","correct_rejection"
"","","","","","html-keyboard-response","238","713109","0.0-10.0-1.99","https://mcdermottlab.mit.edu/mturk_stimuli/bjmedina/global-music-2025-n_80/sequences/isi_16/len120/seq033_len120_s10_isi-1p0_0p0_16p0.json","10.870000000000001","true","bxp5omnl5xp","","null","<span style=""font-size: 40px"">+</span>","null","","","","","","","","","",""
"","","","","","audio-button-response","239","719687","0.0-10.0-2.99","https://mcdermottlab.mit.edu/mturk_stimuli/bjmedina/global-music-2025-n_80/sequences/isi_16/len120/seq033_len120_s10_isi-1p0_0p0_16p0.json","10.870000000000001","true","bxp5omnl5xp","","5960","https://mcdermottlab.mit.edu/mturk_stimuli/bjmedina/global-music-2025-n_80/mem_stim_61.wav","2","main","","","false","mem_stim_61.wav","false","-1","","1","correct_rejection"
"","","","","","html-keyboard-response","240","719770","0.0-10.0-1.100","https://mcdermottlab.mit.edu/mturk_stimuli/bjmedina/global-music-2025-n_80/sequences/isi_16/len120/seq033_len120_s10_isi-1p0_0p0_16p0.json","10.870000000000001","true","bxp5omnl5xp","","null","<span style=""font-size: 40px"">+</span>","null","","","","","","","","","",""
"","","","","","audio-button-response","241","725867","0.0-10.0-2.100","https://mcdermottlab.mit.edu/mturk_stimuli/bjmedina/global-music-2025-n_80/sequences/isi_16/len120/seq033_len120_s10_isi-1p0_0p0_16p0.json","10.870000000000001","true","bxp5omnl5xp","","5459","https://mcdermottlab.mit.edu/mturk_stimuli/bjmedina/global-music-2025-n_80/mem_stim_11.wav","1","main","","","false","mem_stim_11.wav","false","-1","","0","false_alarm"
"","","","","","html-keyboard-response","242","725950","0.0-10.0-1.101","https://mcdermottlab.mit.edu/mturk_stimuli/bjmedina/global-music-2025-n_80/sequences/isi_16/len120/seq033_len120_s10_isi-1p0_0p0_16p0.json","10.870000000000001","true","bxp5omnl5xp","","null","<span style=""font-size: 40px"">+</span>","null","","","","","","","","","",""
"","","","","","audio-button-response","243","729399","0.0-10.0-2.101","https://mcdermottlab.mit.edu/mturk_stimuli/bjmedina/global-music-2025-n_80/sequences/isi_16/len120/seq033_len120_s10_isi-1p0_0p0_16p0.json","10.870000000000001","true","bxp5omnl5xp","","3440","https://mcdermottlab.mit.edu/mturk_stimuli/bjmedina/global-music-2025-n_80/mem_stim_11.wav","3","main","","","true","mem_stim_11.wav","true","0","","0","miss"
"","","","","","html-keyboard-response","244","729469","0.0-10.0-1.102","https://mcdermottlab.mit.edu/mturk_stimuli/bjmedina/global-music-2025-n_80/sequences/isi_16/len120/seq033_len120_s10_isi-1p0_0p0_16p0.json","10.870000000000001","true","bxp5omnl5xp","","null","<span style=""font-size: 40px"">+</span>","null","","","","","","","","","",""
"","","","","","audio-button-response","245","734083","0.0-10.0-2.102","https://mcdermottlab.mit.edu/mturk_stimuli/bjmedina/global-music-2025-n_80/sequences/isi_16/len120/seq033_len120_s10_isi-1p0_0p0_16p0.json","10.870000000000001","true","bxp5omnl5xp","","4011","https://mcdermottlab.mit.edu/mturk_stimuli/bjmedina/global-music-2025-n_80/mem_stim_6.wav","3","main","","","false","mem_stim_6.wav","false","-1","","1","correct_rejection"
"","","","","","html-keyboard-response","246","734148","0.0-10.0-1.103","https://mcdermottlab.mit.edu/mturk_stimuli/bjmedina/global-music-2025-n_80/sequences/isi_16/len120/seq033_len120_s10_isi-1p0_0p0_16p0.json","10.870000000000001","true","bxp5omnl5xp","","null","<span style=""font-size: 40px"">+</span>","null","","","","","","","","","",""
"","","","","","audio-button-response","247","738617","0.0-10.0-2.103","https://mcdermottlab.mit.edu/mturk_stimuli/bjmedina/global-music-2025-n_80/sequences/isi_16/len120/seq033_len120_s10_isi-1p0_0p0_16p0.json","10.870000000000001","true","bxp5omnl5xp","","3600","https://mcdermottlab.mit.edu/mturk_stimuli/bjmedina/global-music-2025-n_80/mem_stim_68.wav","3","main","","","false","mem_stim_68.wav","false","-1","","1","correct_rejection"
"","","","","","html-keyboard-response","248","738696","0.0-10.0-1.104","https://mcdermottlab.mit.edu/mturk_stimuli/bjmedina/global-music-2025-n_80/sequences/isi_16/len120/seq033_len120_s10_isi-1p0_0p0_16p0.json","10.870000000000001","true","bxp5omnl5xp","","null","<span style=""font-size: 40px"">+</span>","null","","","","","","","","","",""
"","","","","","audio-button-response","249","743688","0.0-10.0-2.104","https://mcdermottlab.mit.edu/mturk_stimuli/bjmedina/global-music-2025-n_80/sequences/isi_16/len120/seq033_len120_s10_isi-1p0_0p0_16p0.json","10.870000000000001","true","bxp5omnl5xp","","4541","https://mcdermottlab.mit.edu/mturk_stimuli/bjmedina/global-music-2025-n_80/mem_stim_40.wav","2","main","","","false","mem_stim_40.wav","false","-1","","1","correct_rejection"
"","","","","","html-keyboard-response","250","743761","0.0-10.0-1.105","https://mcdermottlab.mit.edu/mturk_stimuli/bjmedina/global-music-2025-n_80/sequences/isi_16/len120/seq033_len120_s10_isi-1p0_0p0_16p0.json","10.870000000000001","true","bxp5omnl5xp","","null","<span style=""font-size: 40px"">+</span>","null","","","","","","","","","",""
"","","","","","audio-button-response","251","746616","0.0-10.0-2.105","https://mcdermottlab.mit.edu/mturk_stimuli/bjmedina/global-music-2025-n_80/sequences/isi_16/len120/seq033_len120_s10_isi-1p0_0p0_16p0.json","10.870000000000001","true","bxp5omnl5xp","","2851","https://mcdermottlab.mit.edu/mturk_stimuli/bjmedina/global-music-2025-n_80/mem_stim_2.wav","3","main","","","true","mem_stim_2.wav","false","16","","0","miss"
"","","","","","html-keyboard-response","252","746690","0.0-10.0-1.106","https://mcdermottlab.mit.edu/mturk_stimuli/bjmedina/global-music-2025-n_80/sequences/isi_16/len120/seq033_len120_s10_isi-1p0_0p0_16p0.json","10.870000000000001","true","bxp5omnl5xp","","null","<span style=""font-size: 40px"">+</span>","null","","","","","","","","","",""
"","","","","","audio-button-response","253","751743","0.0-10.0-2.106","https://mcdermottlab.mit.edu/mturk_stimuli/bjmedina/global-music-2025-n_80/sequences/isi_16/len120/seq033_len120_s10_isi-1p0_0p0_16p0.json","10.870000000000001","true","bxp5omnl5xp","","5048","https://mcdermottlab.mit.edu/mturk_stimuli/bjmedina/global-music-2025-n_80/mem_stim_60.wav","1","main","","","true","mem_stim_60.wav","false","16","","1","hit"
"","","","","","html-keyboard-response","254","751805","0.0-10.0-1.107","https://mcdermottlab.mit.edu/mturk_stimuli/bjmedina/global-music-2025-n_80/sequences/isi_16/len120/seq033_len120_s10_isi-1p0_0p0_16p0.json","10.870000000000001","true","bxp5omnl5xp","","null","<span style=""font-size: 40px"">+</span>","null","","","","","","","","","",""
"","","","","","audio-button-response","255","755388","0.0-10.0-2.107","https://mcdermottlab.mit.edu/mturk_stimuli/bjmedina/global-music-2025-n_80/sequences/isi_16/len120/seq033_len120_s10_isi-1p0_0p0_16p0.json","10.870000000000001","true","bxp5omnl5xp","","3579","https://mcdermottlab.mit.edu/mturk_stimuli/bjmedina/global-music-2025-n_80/mem_stim_73.wav","3","main","","","true","mem_stim_73.wav","false","16","","0","miss"
"","","","","","html-keyboard-response","256","755460","0.0-10.0-1.108","https://mcdermottlab.mit.edu/mturk_stimuli/bjmedina/global-music-2025-n_80/sequences/isi_16/len120/seq033_len120_s10_isi-1p0_0p0_16p0.json","10.870000000000001","true","bxp5omnl5xp","","null","<span style=""font-size: 40px"">+</span>","null","","","","","","","","","",""
