"success","timeout","failed_images","failed_audio","failed_video","trial_type","trial_index","time_elapsed","internal_node_id","sequence_file","pay","passed_hc","completion_code","view_history","rt","stimulus","response","stim_type","hc_answer","correct_hc","repeat","yt_id","catch","isi","type","is_correct","response_type"
"true","false","[]","[]","[]","preload","0","54","0.0-0.0","https://mcdermottlab.mit.edu/mturk_stimuli/bjmedina/global-music-2025-n_80/sequences/isi_16/len120/seq067_len120_s10_isi-1p0_0p0_16p0.json","10.69","true","g78sladlyjx","","","","","","","","","","","","","",""
"","","","","","instructions","1","2563","0.0-1.0","https://mcdermottlab.mit.edu/mturk_stimuli/bjmedina/global-music-2025-n_80/sequences/isi_16/len120/seq067_len120_s10_isi-1p0_0p0_16p0.json","10.69","true","g78sladlyjx","[{""page_index"":0,""viewing_time"":2508}]","2508","","","","","","","","","","","",""
"","","","","","instructions","2","6778","0.0-2.0","https://mcdermottlab.mit.edu/mturk_stimuli/bjmedina/global-music-2025-n_80/sequences/isi_16/len120/seq067_len120_s10_isi-1p0_0p0_16p0.json","10.69","true","g78sladlyjx","[{""page_index"":0,""viewing_time"":4215}]","4215","","","","","","","","","","","",""
"","","","","","audio-button-response","3","19850","0.0-3.0-0.0","https://mcdermottlab.mit.edu/mturk_stimuli/bjmedina/global-music-2025-n_80/sequences/isi_16/len120/seq067_len120_s10_isi-1p0_0p0_16p0.json","10.69","true","g78sladlyjx","","13061","https://mcdermottlab.mit.edu/bjmedina/experiments/mem_exp_v01/assets/noise_calib_stim.wav","0","","","","","","","","","",""
"","","","","","audio-button-response","4","28942","0.0-3.1-0.1","https://mcdermottlab.mit.edu/mturk_stimuli/bjmedina/global-music-2025-n_80/sequences/isi_16/len120/seq067_len120_s10_isi-1p0_0p0_16p0.json","10.69","true","g78sladlyjx","","9099","https://mcdermottlab.mit.edu/bjmedina/experiments/mem_exp_v01/assets/noise_calib_stim.wav","0","","","","","","","","","",""
"","","","","","audio-button-response","5","31484","0.0-3.2-0.2","https://mcdermottlab.mit.edu/mturk_stimuli/bjmedina/global-music-2025-n_80/sequences/isi_16/len120/seq067_len120_s10_isi-1p0_0p0_16p0.json","10.69","true","g78sladlyjx","","2541","https://mcdermottlab.mit.edu/bjmedina/experiments/mem_exp_v01/assets/noise_calib_stim.wav","1","","","","","","","","","",""
"","","","","","instructions","6","43789","0.0-4.0","https://mcdermottlab.mit.edu/mturk_stimuli/bjmedina/global-music-2025-n_80/sequences/isi_16/len120/seq067_len120_s10_isi-1p0_0p0_16p0.json","10.69","true","g78sladlyjx","[{""page_index"":0,""viewing_time"":12304}]","12304","","","","","","","","","","","",""
"","","","","","audio-button-response","7","48491","0.0-5.0-0.0","https://mcdermottlab.mit.edu/mturk_stimuli/bjmedina/global-music-2025-n_80/sequences/isi_16/len120/seq067_len120_s10_isi-1p0_0p0_16p0.json","10.69","true","g78sladlyjx","","4400","https://mcdermottlab.mit.edu/bjmedina/experiments/mem_exp_v01/assets/antiphase_HC_OSI.wav","1","hc","2","1","","","","","","",""
"","","","","","audio-button-response","8","53065","0.0-5.0-0.1","https://mcdermottlab.mit.edu/mturk_stimuli/bjmedina/global-music-2025-n_80/sequences/isi_16/len120/seq067_len120_s10_isi-1p0_0p0_16p0.json","10.69","true","g78sladlyjx","","4349","https://mcdermottlab.mit.edu/bjmedina/experiments/mem_exp_v01/assets/antiphase_HC_ISO.wav","1","hc","2","1","","","","","","",""
"","","","","","audio-button-response","9","57554","0.0-5.0-0.2","https://mcdermottlab.mit.edu/mturk_stimuli/bjmedina/global-music-2025-n_80/sequences/isi_16/len120/seq067_len120_s10_isi-1p0_0p0_16p0.json","10.69","true","g78sladlyjx","","4259","https://mcdermottlab.mit.edu/bjmedina/experiments/mem_exp_v01/assets/antiphase_HC_IOS.wav","2","hc","3","1","","","","","","",""
"","","","","","audio-button-response","10","62069","0.0-5.0-0.3","https://mcdermottlab.mit.edu/mturk_stimuli/bjmedina/global-music-2025-n_80/sequences/isi_16/len120/seq067_len120_s10_isi-1p0_0p0_16p0.json","10.69","true","g78sladlyjx","","4299","https://mcdermottlab.mit.edu/bjmedina/experiments/mem_exp_v01/assets/antiphase_HC_OIS.wav","2","hc","3","1","","","","","","",""
"","","","","","audio-button-response","11","66627","0.0-5.0-0.4","https://mcdermottlab.mit.edu/mturk_stimuli/bjmedina/global-music-2025-n_80/sequences/isi_16/len120/seq067_len120_s10_isi-1p0_0p0_16p0.json","10.69","true","g78sladlyjx","","4328","https://mcdermottlab.mit.edu/bjmedina/experiments/mem_exp_v01/assets/antiphase_HC_SIO.wav","0","hc","1","1","","","","","","",""
"","","","","","audio-button-response","12","71177","0.0-5.0-0.5","https://mcdermottlab.mit.edu/mturk_stimuli/bjmedina/global-music-2025-n_80/sequences/isi_16/len120/seq067_len120_s10_isi-1p0_0p0_16p0.json","10.69","true","g78sladlyjx","","4341","https://mcdermottlab.mit.edu/bjmedina/experiments/mem_exp_v01/assets/antiphase_HC_SOI.wav","0","hc","1","1","","","","","","",""
"","","","","","html-keyboard-response","13","73253","0.0-6.0","https://mcdermottlab.mit.edu/mturk_stimuli/bjmedina/global-music-2025-n_80/sequences/isi_16/len120/seq067_len120_s10_isi-1p0_0p0_16p0.json","10.69","true","g78sladlyjx","","2075","<h1>You have finished the LOUDNESS task!</h1> <p>Press space to continue</p>"," ","","","","","","","","","",""
"","","","","","instructions","14","161440","0.0-7.0","https://mcdermottlab.mit.edu/mturk_stimuli/bjmedina/global-music-2025-n_80/sequences/isi_16/len120/seq067_len120_s10_isi-1p0_0p0_16p0.json","10.69","true","g78sladlyjx","[{""page_index"":0,""viewing_time"":12042},{""page_index"":1,""viewing_time"":23575},{""page_index"":2,""viewing_time"":44789},{""page_index"":3,""viewing_time"":7779}]","88186","","","","","","","","","","","",""
"","","","","","html-keyboard-response","15","161491","0.0-8.0-0.0","https://mcdermottlab.mit.edu/mturk_stimuli/bjmedina/global-music-2025-n_80/sequences/isi_16/len120/seq067_len120_s10_isi-1p0_0p0_16p0.json","10.69","true","g78sladlyjx","","null","<span style=""font-size: 40px"">+</span>","null","fixation","","","","","","","","",""
"","","","","","audio-button-response","16","164540","0.0-8.0-1.0","https://mcdermottlab.mit.edu/mturk_stimuli/bjmedina/global-music-2025-n_80/sequences/isi_16/len120/seq067_len120_s10_isi-1p0_0p0_16p0.json","10.69","true","g78sladlyjx","","2661","https://mcdermottlab.mit.edu/mturk_stimuli/bjmedina/mem_exp_v05/mem_stim_1023_f32.wav","0","demo","","","0","","","","","",""
"","","","","","html-keyboard-response","17","164600","0.0-8.0-0.1","https://mcdermottlab.mit.edu/mturk_stimuli/bjmedina/global-music-2025-n_80/sequences/isi_16/len120/seq067_len120_s10_isi-1p0_0p0_16p0.json","10.69","true","g78sladlyjx","","null","<span style=""font-size: 40px"">+</span>","null","fixation","","","","","","","","",""
"","","","","","audio-button-response","18","167239","0.0-8.0-1.1","https://mcdermottlab.mit.edu/mturk_stimuli/bjmedina/global-music-2025-n_80/sequences/isi_16/len120/seq067_len120_s10_isi-1p0_0p0_16p0.json","10.69","true","g78sladlyjx","","2389","https://mcdermottlab.mit.edu/mturk_stimuli/bjmedina/mem_exp_v05/mem_stim_1022_f32.wav","0","demo","","","0","","","","","",""
"","","","","","html-keyboard-response","19","167303","0.0-8.0-0.2","https://mcdermottlab.mit.edu/mturk_stimuli/bjmedina/global-music-2025-n_80/sequences/isi_16/len120/seq067_len120_s10_isi-1p0_0p0_16p0.json","10.69","true","g78sladlyjx","","null","<span style=""font-size: 40px"">+</span>","null","fixation","","","","","","","","",""
"","","","","","audio-button-response","20","169695","0.0-8.0-1.2","https://mcdermottlab.mit.edu/mturk_stimuli/bjmedina/global-music-2025-n_80/sequences/isi_16/len120/seq067_len120_s10_isi-1p0_0p0_16p0.json","10.69","true","g78sladlyjx","","2389","https://mcdermottlab.mit.edu/mturk_stimuli/bjmedina/mem_exp_v05/mem_stim_1022_f32.wav","3","demo","","","1","","","","","",""
"","","","","","html-keyboard-response","21","169756","0.0-8.0-0.3","https://mcdermottlab.mit.edu/mturk_stimuli/bjmedina/global-music-2025-n_80/sequences/isi_16/len120/seq067_len120_s10_isi-1p0_0p0_16p0.json","10.69","true","g78sladlyjx","","null","<span style=""font-size: 40px"">+</span>","null","fixation","","","","","","","","",""
"","","","","","audio-button-response","22","172431","0.0-8.0-1.3","https://mcdermottlab.mit.edu/mturk_stimuli/bjmedina/global-music-2025-n_80/sequences/isi_16/len120/seq067_len120_s10_isi-1p0_0p0_16p0.json","10.69","true","g78sladlyjx","","2349","https://mcdermottlab.mit.edu/mturk_stimuli/bjmedina/mem_exp_v05/mem_stim_1021_f32.wav","0","demo","","","0","","","","","",""
"","","","","","html-keyboard-response","23","172496","0.0-8.0-0.4","https://mcdermottlab.mit.edu/mturk_stimuli/bjmedina/global-music-2025-n_80/sequences/isi_16/len120/seq067_len120_s10_isi-1p0_0p0_16p0.json","10.69","true","g78sladlyjx","","null","<span style=""font-size: 40px"">+</span>","null","fixation","","","","","","","","",""
"","","","","","audio-button-response","24","175497","0.0-8.0-1.4","https://mcdermottlab.mit.edu/mturk_stimuli/bjmedina/global-music-2025-n_80/sequences/isi_16/len120/seq067_len120_s10_isi-1p0_0p0_16p0.json","10.69","true","g78sladlyjx","","3000","https://mcdermottlab.mit.edu/mturk_stimuli/bjmedina/mem_exp_v05/mem_stim_1023_f32.wav","3","demo","","","1","","","","","",""
"","","","","","html-keyboard-response","25","175556","0.0-8.0-0.5","https://mcdermottlab.mit.edu/mturk_stimuli/bjmedina/global-music-2025-n_80/sequences/isi_16/len120/seq067_len120_s10_isi-1p0_0p0_16p0.json","10.69","true","g78sladlyjx","","null","<span style=""font-size: 40px"">+</span>","null","fixation","","","","","","","","",""
"","","","","","audio-button-response","26","178176","0.0-8.0-1.5","https://mcdermottlab.mit.edu/mturk_stimuli/bjmedina/global-music-2025-n_80/sequences/isi_16/len120/seq067_len120_s10_isi-1p0_0p0_16p0.json","10.69","true","g78sladlyjx","","2331","https://mcdermottlab.mit.edu/mturk_stimuli/bjmedina/mem_exp_v05/mem_stim_1020_f32.wav","0","demo","","","0","","","","","",""
"","","","","","html-keyboard-response","27","178237","0.0-8.0-0.6","https://mcdermottlab.mit.edu/mturk_stimuli/bjmedina/global-music-2025-n_80/sequences/isi_16/len120/seq067_len120_s10_isi-1p0_0p0_16p0.json","10.69","true","g78sladlyjx","","null","<span style=""font-size: 40px"">+</span>","null","fixation","","","","","","","","",""
"","","","","","audio-button-response","28","180772","0.0-8.0-1.6","https://mcdermottlab.mit.edu/mturk_stimuli/bjmedina/global-music-2025-n_80/sequences/isi_16/len120/seq067_len120_s10_isi-1p0_0p0_16p0.json","10.69","true","g78sladlyjx","","2301","https://mcdermottlab.mit.edu/mturk_stimuli/bjmedina/mem_exp_v05/mem_stim_1019_f32.wav","0","demo","","","0","","","","","",""
"","","","","","html-keyboard-response","29","180826","0.0-8.0-0.7","https://mcdermottlab.mit.edu/mturk_stimuli/bjmedina/global-music-2025-n_80/sequences/isi_16/len120/seq067_len120_s10_isi-1p0_0p0_16p0.json","10.69","true","g78sladlyjx","","null","<span style=""font-size: 40px"">+</span>","null","fixation","","","","","","","","",""
"","","","","","audio-button-response","30","183106","0.0-8.0-1.7","https://mcdermottlab.mit.edu/mturk_stimuli/bjmedina/global-music-2025-n_80/sequences/isi_16/len120/seq067_len120_s10_isi-1p0_0p0_16p0.json","10.69","true","g78sladlyjx","","2280","https://mcdermottlab.mit.edu/mturk_stimuli/bjmedina/mem_exp_v05/mem_stim_1021_f32.wav","2","demo","","","1","","","","","",""
"","","","","","html-keyboard-response","31","189079","0.0-9.0","https://mcdermottlab.mit.edu/mturk_stimuli/bjmedina/global-music-2025-n_80/sequences/isi_16/len120/seq067_len120_s10_isi-1p0_0p0_16p0.json","10.69","true","g78sladlyjx","","5972","<p>You are now ready to start the experiment. Press SPACE when you are ready to start.</p>"," ","","","","","","","","","",""
"","","","","","html-keyboard-response","32","189132","0.0-10.0-1.0","https://mcdermottlab.mit.edu/mturk_stimuli/bjmedina/global-music-2025-n_80/sequences/isi_16/len120/seq067_len120_s10_isi-1p0_0p0_16p0.json","10.69","true","g78sladlyjx","","null","<span style=""font-size: 40px"">+</span>","null","","","","","","","","","",""
"","","","","","audio-button-response","33","192046","0.0-10.0-2.0","https://mcdermottlab.mit.edu/mturk_stimuli/bjmedina/global-music-2025-n_80/sequences/isi_16/len120/seq067_len120_s10_isi-1p0_0p0_16p0.json","10.69","true","g78sladlyjx","","2640","https://mcdermottlab.mit.edu/mturk_stimuli/bjmedina/global-music-2025-n_80/mem_stim_68.wav","0","main","","","false","mem_stim_68.wav","false","-1","","1","correct_rejection"
"","","","","","html-keyboard-response","34","192107","0.0-10.0-1.1","https://mcdermottlab.mit.edu/mturk_stimuli/bjmedina/global-music-2025-n_80/sequences/isi_16/len120/seq067_len120_s10_isi-1p0_0p0_16p0.json","10.69","true","g78sladlyjx","","null","<span style=""font-size: 40px"">+</span>","null","","","","","","","","","",""
"","","","","","audio-button-response","35","194830","0.0-10.0-2.1","https://mcdermottlab.mit.edu/mturk_stimuli/bjmedina/global-music-2025-n_80/sequences/isi_16/len120/seq067_len120_s10_isi-1p0_0p0_16p0.json","10.69","true","g78sladlyjx","","2531","https://mcdermottlab.mit.edu/mturk_stimuli/bjmedina/global-music-2025-n_80/mem_stim_30.wav","0","main","","","false","mem_stim_30.wav","false","-1","","1","correct_rejection"
"","","","","","html-keyboard-response","36","194896","0.0-10.0-1.2","https://mcdermottlab.mit.edu/mturk_stimuli/bjmedina/global-music-2025-n_80/sequences/isi_16/len120/seq067_len120_s10_isi-1p0_0p0_16p0.json","10.69","true","g78sladlyjx","","null","<span style=""font-size: 40px"">+</span>","null","","","","","","","","","",""
"","","","","","audio-button-response","37","197538","0.0-10.0-2.2","https://mcdermottlab.mit.edu/mturk_stimuli/bjmedina/global-music-2025-n_80/sequences/isi_16/len120/seq067_len120_s10_isi-1p0_0p0_16p0.json","10.69","true","g78sladlyjx","","2480","https://mcdermottlab.mit.edu/mturk_stimuli/bjmedina/global-music-2025-n_80/mem_stim_35.wav","0","main","","","false","mem_stim_35.wav","false","-1","","1","correct_rejection"
"","","","","","html-keyboard-response","38","197596","0.0-10.0-1.3","https://mcdermottlab.mit.edu/mturk_stimuli/bjmedina/global-music-2025-n_80/sequences/isi_16/len120/seq067_len120_s10_isi-1p0_0p0_16p0.json","10.69","true","g78sladlyjx","","null","<span style=""font-size: 40px"">+</span>","null","","","","","","","","","",""
"","","","","","audio-button-response","39","200231","0.0-10.0-2.3","https://mcdermottlab.mit.edu/mturk_stimuli/bjmedina/global-music-2025-n_80/sequences/isi_16/len120/seq067_len120_s10_isi-1p0_0p0_16p0.json","10.69","true","g78sladlyjx","","2480","https://mcdermottlab.mit.edu/mturk_stimuli/bjmedina/global-music-2025-n_80/mem_stim_40.wav","0","main","","","false","mem_stim_40.wav","false","-1","","1","correct_rejection"
"","","","","","html-keyboard-response","40","200290","0.0-10.0-1.4","https://mcdermottlab.mit.edu/mturk_stimuli/bjmedina/global-music-2025-n_80/sequences/isi_16/len120/seq067_len120_s10_isi-1p0_0p0_16p0.json","10.69","true","g78sladlyjx","","null","<span style=""font-size: 40px"">+</span>","null","","","","","","","","","",""
"","","","","","audio-button-response","41","202997","0.0-10.0-2.4","https://mcdermottlab.mit.edu/mturk_stimuli/bjmedina/global-music-2025-n_80/sequences/isi_16/len120/seq067_len120_s10_isi-1p0_0p0_16p0.json","10.69","true","g78sladlyjx","","2549","https://mcdermottlab.mit.edu/mturk_stimuli/bjmedina/global-music-2025-n_80/mem_stim_27.wav","0","main","","","false","mem_stim_27.wav","false","-1","","1","correct_rejection"
"","","","","","html-keyboard-response","42","203056","0.0-10.0-1.5","https://mcdermottlab.mit.edu/mturk_stimuli/bjmedina/global-music-2025-n_80/sequences/isi_16/len120/seq067_len120_s10_isi-1p0_0p0_16p0.json","10.69","true","g78sladlyjx","","null","<span style=""font-size: 40px"">+</span>","null","","","","","","","","","",""
"","","","","","audio-button-response","43","205707","0.0-10.0-2.5","https://mcdermottlab.mit.edu/mturk_stimuli/bjmedina/global-music-2025-n_80/sequences/isi_16/len120/seq067_len120_s10_isi-1p0_0p0_16p0.json","10.69","true","g78sladlyjx","","2480","https://mcdermottlab.mit.edu/mturk_stimuli/bjmedina/global-music-2025-n_80/mem_stim_21.wav","0","main","","","false","mem_stim_21.wav","false","-1","","1","correct_rejection"
"","","","","","html-keyboard-response","44","205771","0.0-10.0-1.6","https://mcdermottlab.mit.edu/mturk_stimuli/bjmedina/global-music-2025-n_80/sequences/isi_16/len120/seq067_len120_s10_isi-1p0_0p0_16p0.json","10.69","true","g78sladlyjx","","null","<span style=""font-size: 40px"">+</span>","null","","","","","","","","","",""
"","","","","","audio-button-response","45","208348","0.0-10.0-2.6","https://mcdermottlab.mit.edu/mturk_stimuli/bjmedina/global-music-2025-n_80/sequences/isi_16/len120/seq067_len120_s10_isi-1p0_0p0_16p0.json","10.69","true","g78sladlyjx","","2421","https://mcdermottlab.mit.edu/mturk_stimuli/bjmedina/global-music-2025-n_80/mem_stim_57.wav","0","main","","","false","mem_stim_57.wav","false","-1","","1","correct_rejection"
"","","","","","html-keyboard-response","46","208400","0.0-10.0-1.7","https://mcdermottlab.mit.edu/mturk_stimuli/bjmedina/global-music-2025-n_80/sequences/isi_16/len120/seq067_len120_s10_isi-1p0_0p0_16p0.json","10.69","true","g78sladlyjx","","null","<span style=""font-size: 40px"">+</span>","null","","","","","","","","","",""
"","","","","","audio-button-response","47","211088","0.0-10.0-2.7","https://mcdermottlab.mit.edu/mturk_stimuli/bjmedina/global-music-2025-n_80/sequences/isi_16/len120/seq067_len120_s10_isi-1p0_0p0_16p0.json","10.69","true","g78sladlyjx","","2531","https://mcdermottlab.mit.edu/mturk_stimuli/bjmedina/global-music-2025-n_80/mem_stim_79.wav","0","main","","","false","mem_stim_79.wav","false","-1","","1","correct_rejection"
"","","","","","html-keyboard-response","48","211151","0.0-10.0-1.8","https://mcdermottlab.mit.edu/mturk_stimuli/bjmedina/global-music-2025-n_80/sequences/isi_16/len120/seq067_len120_s10_isi-1p0_0p0_16p0.json","10.69","true","g78sladlyjx","","null","<span style=""font-size: 40px"">+</span>","null","","","","","","","","","",""
"","","","","","audio-button-response","49","214631","0.0-10.0-2.8","https://mcdermottlab.mit.edu/mturk_stimuli/bjmedina/global-music-2025-n_80/sequences/isi_16/len120/seq067_len120_s10_isi-1p0_0p0_16p0.json","10.69","true","g78sladlyjx","","3309","https://mcdermottlab.mit.edu/mturk_stimuli/bjmedina/global-music-2025-n_80/mem_stim_7.wav","0","main","","","false","mem_stim_7.wav","false","-1","","1","correct_rejection"
"","","","","","html-keyboard-response","50","214684","0.0-10.0-1.9","https://mcdermottlab.mit.edu/mturk_stimuli/bjmedina/global-music-2025-n_80/sequences/isi_16/len120/seq067_len120_s10_isi-1p0_0p0_16p0.json","10.69","true","g78sladlyjx","","null","<span style=""font-size: 40px"">+</span>","null","","","","","","","","","",""
"","","","","","audio-button-response","51","218491","0.0-10.0-2.9","https://mcdermottlab.mit.edu/mturk_stimuli/bjmedina/global-music-2025-n_80/sequences/isi_16/len120/seq067_len120_s10_isi-1p0_0p0_16p0.json","10.69","true","g78sladlyjx","","3651","https://mcdermottlab.mit.edu/mturk_stimuli/bjmedina/global-music-2025-n_80/mem_stim_55.wav","1","main","","","false","mem_stim_55.wav","false","-1","","0","false_alarm"
"","","","","","html-keyboard-response","52","218549","0.0-10.0-1.10","https://mcdermottlab.mit.edu/mturk_stimuli/bjmedina/global-music-2025-n_80/sequences/isi_16/len120/seq067_len120_s10_isi-1p0_0p0_16p0.json","10.69","true","g78sladlyjx","","null","<span style=""font-size: 40px"">+</span>","null","","","","","","","","","",""
"","","","","","audio-button-response","53","221894","0.0-10.0-2.10","https://mcdermottlab.mit.edu/mturk_stimuli/bjmedina/global-music-2025-n_80/sequences/isi_16/len120/seq067_len120_s10_isi-1p0_0p0_16p0.json","10.69","true","g78sladlyjx","","3181","https://mcdermottlab.mit.edu/mturk_stimuli/bjmedina/global-music-2025-n_80/mem_stim_23.wav","0","main","","","false","mem_stim_23.wav","false","-1","","1","correct_rejection"
"","","","","","html-keyboard-response","54","221958","0.0-10.0-1.11","https://mcdermottlab.mit.edu/mturk_stimuli/bjmedina/global-music-2025-n_80/sequences/isi_16/len120/seq067_len120_s10_isi-1p0_0p0_16p0.json","10.69","true","g78sladlyjx","","null","<span style=""font-size: 40px"">+</span>","null","","","","","","","","","",""
"","","","","","audio-button-response","55","224753","0.0-10.0-2.11","https://mcdermottlab.mit.edu/mturk_stimuli/bjmedina/global-music-2025-n_80/sequences/isi_16/len120/seq067_len120_s10_isi-1p0_0p0_16p0.json","10.69","true","g78sladlyjx","","2629","https://mcdermottlab.mit.edu/mturk_stimuli/bjmedina/global-music-2025-n_80/mem_stim_1.wav","0","main","","","false","mem_stim_1.wav","false","-1","","1","correct_rejection"
"","","","","","html-keyboard-response","56","224807","0.0-10.0-1.12","https://mcdermottlab.mit.edu/mturk_stimuli/bjmedina/global-music-2025-n_80/sequences/isi_16/len120/seq067_len120_s10_isi-1p0_0p0_16p0.json","10.69","true","g78sladlyjx","","null","<span style=""font-size: 40px"">+</span>","null","","","","","","","","","",""
"","","","","","audio-button-response","57","228425","0.0-10.0-2.12","https://mcdermottlab.mit.edu/mturk_stimuli/bjmedina/global-music-2025-n_80/sequences/isi_16/len120/seq067_len120_s10_isi-1p0_0p0_16p0.json","10.69","true","g78sladlyjx","","3451","https://mcdermottlab.mit.edu/mturk_stimuli/bjmedina/global-music-2025-n_80/mem_stim_3.wav","1","main","","","false","mem_stim_3.wav","false","-1","","0","false_alarm"
"","","","","","html-keyboard-response","58","228486","0.0-10.0-1.13","https://mcdermottlab.mit.edu/mturk_stimuli/bjmedina/global-music-2025-n_80/sequences/isi_16/len120/seq067_len120_s10_isi-1p0_0p0_16p0.json","10.69","true","g78sladlyjx","","null","<span style=""font-size: 40px"">+</span>","null","","","","","","","","","",""
"","","","","","audio-button-response","59","233472","0.0-10.0-2.13","https://mcdermottlab.mit.edu/mturk_stimuli/bjmedina/global-music-2025-n_80/sequences/isi_16/len120/seq067_len120_s10_isi-1p0_0p0_16p0.json","10.69","true","g78sladlyjx","","4829","https://mcdermottlab.mit.edu/mturk_stimuli/bjmedina/global-music-2025-n_80/mem_stim_77.wav","1","main","","","false","mem_stim_77.wav","false","-1","","0","false_alarm"
"","","","","","html-keyboard-response","60","233525","0.0-10.0-1.14","https://mcdermottlab.mit.edu/mturk_stimuli/bjmedina/global-music-2025-n_80/sequences/isi_16/len120/seq067_len120_s10_isi-1p0_0p0_16p0.json","10.69","true","g78sladlyjx","","null","<span style=""font-size: 40px"">+</span>","null","","","","","","","","","",""
"","","","","","audio-button-response","61","236288","0.0-10.0-2.14","https://mcdermottlab.mit.edu/mturk_stimuli/bjmedina/global-music-2025-n_80/sequences/isi_16/len120/seq067_len120_s10_isi-1p0_0p0_16p0.json","10.69","true","g78sladlyjx","","2509","https://mcdermottlab.mit.edu/mturk_stimuli/bjmedina/global-music-2025-n_80/mem_stim_46.wav","0","main","","","false","mem_stim_46.wav","false","-1","","1","correct_rejection"
"","","","","","html-keyboard-response","62","236356","0.0-10.0-1.15","https://mcdermottlab.mit.edu/mturk_stimuli/bjmedina/global-music-2025-n_80/sequences/isi_16/len120/seq067_len120_s10_isi-1p0_0p0_16p0.json","10.69","true","g78sladlyjx","","null","<span style=""font-size: 40px"">+</span>","null","","","","","","","","","",""
"","","","","","audio-button-response","63","240031","0.0-10.0-2.15","https://mcdermottlab.mit.edu/mturk_stimuli/bjmedina/global-music-2025-n_80/sequences/isi_16/len120/seq067_len120_s10_isi-1p0_0p0_16p0.json","10.69","true","g78sladlyjx","","3520","https://mcdermottlab.mit.edu/mturk_stimuli/bjmedina/global-music-2025-n_80/mem_stim_61.wav","1","main","","","false","mem_stim_61.wav","false","-1","","0","false_alarm"
"","","","","","html-keyboard-response","64","240098","0.0-10.0-1.16","https://mcdermottlab.mit.edu/mturk_stimuli/bjmedina/global-music-2025-n_80/sequences/isi_16/len120/seq067_len120_s10_isi-1p0_0p0_16p0.json","10.69","true","g78sladlyjx","","null","<span style=""font-size: 40px"">+</span>","null","","","","","","","","","",""
"","","","","","audio-button-response","65","242987","0.0-10.0-2.16","https://mcdermottlab.mit.edu/mturk_stimuli/bjmedina/global-music-2025-n_80/sequences/isi_16/len120/seq067_len120_s10_isi-1p0_0p0_16p0.json","10.69","true","g78sladlyjx","","2720","https://mcdermottlab.mit.edu/mturk_stimuli/bjmedina/global-music-2025-n_80/mem_stim_42.wav","2","main","","","false","mem_stim_42.wav","false","-1","","1","correct_rejection"
"","","","","","html-keyboard-response","66","243054","0.0-10.0-1.17","https://mcdermottlab.mit.edu/mturk_stimuli/bjmedina/global-music-2025-n_80/sequences/isi_16/len120/seq067_len120_s10_isi-1p0_0p0_16p0.json","10.69","true","g78sladlyjx","","null","<span style=""font-size: 40px"">+</span>","null","","","","","","","","","",""
"","","","","","audio-button-response","67","245410","0.0-10.0-2.17","https://mcdermottlab.mit.edu/mturk_stimuli/bjmedina/global-music-2025-n_80/sequences/isi_16/len120/seq067_len120_s10_isi-1p0_0p0_16p0.json","10.69","true","g78sladlyjx","","2349","https://mcdermottlab.mit.edu/mturk_stimuli/bjmedina/global-music-2025-n_80/mem_stim_68.wav","3","main","","","true","mem_stim_68.wav","false","16","","0","miss"
"","","","","","html-keyboard-response","68","245471","0.0-10.0-1.18","https://mcdermottlab.mit.edu/mturk_stimuli/bjmedina/global-music-2025-n_80/sequences/isi_16/len120/seq067_len120_s10_isi-1p0_0p0_16p0.json","10.69","true","g78sladlyjx","","null","<span style=""font-size: 40px"">+</span>","null","","","","","","","","","",""
"","","","","","audio-button-response","69","248439","0.0-10.0-2.18","https://mcdermottlab.mit.edu/mturk_stimuli/bjmedina/global-music-2025-n_80/sequences/isi_16/len120/seq067_len120_s10_isi-1p0_0p0_16p0.json","10.69","true","g78sladlyjx","","2800","https://mcdermottlab.mit.edu/mturk_stimuli/bjmedina/global-music-2025-n_80/mem_stim_75.wav","0","main","","","false","mem_stim_75.wav","false","-1","","1","correct_rejection"
"","","","","","html-keyboard-response","70","248494","0.0-10.0-1.19","https://mcdermottlab.mit.edu/mturk_stimuli/bjmedina/global-music-2025-n_80/sequences/isi_16/len120/seq067_len120_s10_isi-1p0_0p0_16p0.json","10.69","true","g78sladlyjx","","null","<span style=""font-size: 40px"">+</span>","null","","","","","","","","","",""
"","","","","","audio-button-response","71","251723","0.0-10.0-2.19","https://mcdermottlab.mit.edu/mturk_stimuli/bjmedina/global-music-2025-n_80/sequences/isi_16/len120/seq067_len120_s10_isi-1p0_0p0_16p0.json","10.69","true","g78sladlyjx","","3229","https://mcdermottlab.mit.edu/mturk_stimuli/bjmedina/global-music-2025-n_80/mem_stim_35.wav","1","main","","","true","mem_stim_35.wav","false","16","","1","hit"
"","","","","","html-keyboard-response","72","251779","0.0-10.0-1.20","https://mcdermottlab.mit.edu/mturk_stimuli/bjmedina/global-music-2025-n_80/sequences/isi_16/len120/seq067_len120_s10_isi-1p0_0p0_16p0.json","10.69","true","g78sladlyjx","","null","<span style=""font-size: 40px"">+</span>","null","","","","","","","","","",""
"","","","","","audio-button-response","73","254118","0.0-10.0-2.20","https://mcdermottlab.mit.edu/mturk_stimuli/bjmedina/global-music-2025-n_80/sequences/isi_16/len120/seq067_len120_s10_isi-1p0_0p0_16p0.json","10.69","true","g78sladlyjx","","2339","https://mcdermottlab.mit.edu/mturk_stimuli/bjmedina/global-music-2025-n_80/mem_stim_40.wav","3","main","","","true","mem_stim_40.wav","false","16","","0","miss"
"","","","","","html-keyboard-response","74","254172","0.0-10.0-1.21","https://mcdermottlab.mit.edu/mturk_stimuli/bjmedina/global-music-2025-n_80/sequences/isi_16/len120/seq067_len120_s10_isi-1p0_0p0_16p0.json","10.69","true","g78sladlyjx","","null","<span style=""font-size: 40px"">+</span>","null","","","","","","","","","",""
"","","","","","audio-button-response","75","256497","0.0-10.0-2.21","https://mcdermottlab.mit.edu/mturk_stimuli/bjmedina/global-music-2025-n_80/sequences/isi_16/len120/seq067_len120_s10_isi-1p0_0p0_16p0.json","10.69","true","g78sladlyjx","","2320","https://mcdermottlab.mit.edu/mturk_stimuli/bjmedina/global-music-2025-n_80/mem_stim_27.wav","3","main","","","true","mem_stim_27.wav","false","16","","0","miss"
"","","","","","html-keyboard-response","76","256562","0.0-10.0-1.22","https://mcdermottlab.mit.edu/mturk_stimuli/bjmedina/global-music-2025-n_80/sequences/isi_16/len120/seq067_len120_s10_isi-1p0_0p0_16p0.json","10.69","true","g78sladlyjx","","null","<span style=""font-size: 40px"">+</span>","null","","","","","","","","","",""
"","","","","","audio-button-response","77","259426","0.0-10.0-2.22","https://mcdermottlab.mit.edu/mturk_stimuli/bjmedina/global-music-2025-n_80/sequences/isi_16/len120/seq067_len120_s10_isi-1p0_0p0_16p0.json","10.69","true","g78sladlyjx","","2701","https://mcdermottlab.mit.edu/mturk_stimuli/bjmedina/global-music-2025-n_80/mem_stim_28.wav","0","main","","","false","mem_stim_28.wav","false","-1","","1","correct_rejection"
"","","","","","html-keyboard-response","78","259484","0.0-10.0-1.23","https://mcdermottlab.mit.edu/mturk_stimuli/bjmedina/global-music-2025-n_80/sequences/isi_16/len120/seq067_len120_s10_isi-1p0_0p0_16p0.json","10.69","true","g78sladlyjx","","null","<span style=""font-size: 40px"">+</span>","null","","","","","","","","","",""
"","","","","","audio-button-response","79","263514","0.0-10.0-2.23","https://mcdermottlab.mit.edu/mturk_stimuli/bjmedina/global-music-2025-n_80/sequences/isi_16/len120/seq067_len120_s10_isi-1p0_0p0_16p0.json","10.69","true","g78sladlyjx","","3869","https://mcdermottlab.mit.edu/mturk_stimuli/bjmedina/global-music-2025-n_80/mem_stim_73.wav","0","main","","","false","mem_stim_73.wav","false","-1","","1","correct_rejection"
"","","","","","html-keyboard-response","80","263577","0.0-10.0-1.24","https://mcdermottlab.mit.edu/mturk_stimuli/bjmedina/global-music-2025-n_80/sequences/isi_16/len120/seq067_len120_s10_isi-1p0_0p0_16p0.json","10.69","true","g78sladlyjx","","null","<span style=""font-size: 40px"">+</span>","null","","","","","","","","","",""
"","","","","","audio-button-response","81","265954","0.0-10.0-2.24","https://mcdermottlab.mit.edu/mturk_stimuli/bjmedina/global-music-2025-n_80/sequences/isi_16/len120/seq067_len120_s10_isi-1p0_0p0_16p0.json","10.69","true","g78sladlyjx","","2379","https://mcdermottlab.mit.edu/mturk_stimuli/bjmedina/global-music-2025-n_80/mem_stim_79.wav","2","main","","","true","mem_stim_79.wav","false","16","","0","miss"
"","","","","","html-keyboard-response","82","266008","0.0-10.0-1.25","https://mcdermottlab.mit.edu/mturk_stimuli/bjmedina/global-music-2025-n_80/sequences/isi_16/len120/seq067_len120_s10_isi-1p0_0p0_16p0.json","10.69","true","g78sladlyjx","","null","<span style=""font-size: 40px"">+</span>","null","","","","","","","","","",""
"","","","","","audio-button-response","83","268803","0.0-10.0-2.25","https://mcdermottlab.mit.edu/mturk_stimuli/bjmedina/global-music-2025-n_80/sequences/isi_16/len120/seq067_len120_s10_isi-1p0_0p0_16p0.json","10.69","true","g78sladlyjx","","2640","https://mcdermottlab.mit.edu/mturk_stimuli/bjmedina/global-music-2025-n_80/mem_stim_47.wav","0","main","","","false","mem_stim_47.wav","false","-1","","1","correct_rejection"
"","","","","","html-keyboard-response","84","268868","0.0-10.0-1.26","https://mcdermottlab.mit.edu/mturk_stimuli/bjmedina/global-music-2025-n_80/sequences/isi_16/len120/seq067_len120_s10_isi-1p0_0p0_16p0.json","10.69","true","g78sladlyjx","","null","<span style=""font-size: 40px"">+</span>","null","","","","","","","","","",""
"","","","","","audio-button-response","85","271406","0.0-10.0-2.26","https://mcdermottlab.mit.edu/mturk_stimuli/bjmedina/global-music-2025-n_80/sequences/isi_16/len120/seq067_len120_s10_isi-1p0_0p0_16p0.json","10.69","true","g78sladlyjx","","2539","https://mcdermottlab.mit.edu/mturk_stimuli/bjmedina/global-music-2025-n_80/mem_stim_47.wav","3","main","","","true","mem_stim_47.wav","true","0","","0","miss"
"","","","","","html-keyboard-response","86","271462","0.0-10.0-1.27","https://mcdermottlab.mit.edu/mturk_stimuli/bjmedina/global-music-2025-n_80/sequences/isi_16/len120/seq067_len120_s10_isi-1p0_0p0_16p0.json","10.69","true","g78sladlyjx","","null","<span style=""font-size: 40px"">+</span>","null","","","","","","","","","",""
"","","","","","audio-button-response","87","275356","0.0-10.0-2.27","https://mcdermottlab.mit.edu/mturk_stimuli/bjmedina/global-music-2025-n_80/sequences/isi_16/len120/seq067_len120_s10_isi-1p0_0p0_16p0.json","10.69","true","g78sladlyjx","","3728","https://mcdermottlab.mit.edu/mturk_stimuli/bjmedina/global-music-2025-n_80/mem_stim_52.wav","1","main","","","false","mem_stim_52.wav","false","-1","","0","false_alarm"
"","","","","","html-keyboard-response","88","275424","0.0-10.0-1.28","https://mcdermottlab.mit.edu/mturk_stimuli/bjmedina/global-music-2025-n_80/sequences/isi_16/len120/seq067_len120_s10_isi-1p0_0p0_16p0.json","10.69","true","g78sladlyjx","","null","<span style=""font-size: 40px"">+</span>","null","","","","","","","","","",""
"","","","","","audio-button-response","89","279058","0.0-10.0-2.28","https://mcdermottlab.mit.edu/mturk_stimuli/bjmedina/global-music-2025-n_80/sequences/isi_16/len120/seq067_len120_s10_isi-1p0_0p0_16p0.json","10.69","true","g78sladlyjx","","3629","https://mcdermottlab.mit.edu/mturk_stimuli/bjmedina/global-music-2025-n_80/mem_stim_1.wav","2","main","","","true","mem_stim_1.wav","false","16","","0","miss"
"","","","","","html-keyboard-response","90","279120","0.0-10.0-1.29","https://mcdermottlab.mit.edu/mturk_stimuli/bjmedina/global-music-2025-n_80/sequences/isi_16/len120/seq067_len120_s10_isi-1p0_0p0_16p0.json","10.69","true","g78sladlyjx","","null","<span style=""font-size: 40px"">+</span>","null","","","","","","","","","",""
"","","","","","audio-button-response","91","281528","0.0-10.0-2.29","https://mcdermottlab.mit.edu/mturk_stimuli/bjmedina/global-music-2025-n_80/sequences/isi_16/len120/seq067_len120_s10_isi-1p0_0p0_16p0.json","10.69","true","g78sladlyjx","","2411","https://mcdermottlab.mit.edu/mturk_stimuli/bjmedina/global-music-2025-n_80/mem_stim_3.wav","2","main","","","true","mem_stim_3.wav","false","16","","0","miss"
"","","","","","html-keyboard-response","92","281594","0.0-10.0-1.30","https://mcdermottlab.mit.edu/mturk_stimuli/bjmedina/global-music-2025-n_80/sequences/isi_16/len120/seq067_len120_s10_isi-1p0_0p0_16p0.json","10.69","true","g78sladlyjx","","null","<span style=""font-size: 40px"">+</span>","null","","","","","","","","","",""
"","","","","","audio-button-response","93","285790","0.0-10.0-2.30","https://mcdermottlab.mit.edu/mturk_stimuli/bjmedina/global-music-2025-n_80/sequences/isi_16/len120/seq067_len120_s10_isi-1p0_0p0_16p0.json","10.69","true","g78sladlyjx","","4192","https://mcdermottlab.mit.edu/mturk_stimuli/bjmedina/global-music-2025-n_80/mem_stim_77.wav","2","main","","","true","mem_stim_77.wav","false","16","","0","miss"
"","","","","","html-keyboard-response","94","285849","0.0-10.0-1.31","https://mcdermottlab.mit.edu/mturk_stimuli/bjmedina/global-music-2025-n_80/sequences/isi_16/len120/seq067_len120_s10_isi-1p0_0p0_16p0.json","10.69","true","g78sladlyjx","","null","<span style=""font-size: 40px"">+</span>","null","","","","","","","","","",""
"","","","","","audio-button-response","95","288843","0.0-10.0-2.31","https://mcdermottlab.mit.edu/mturk_stimuli/bjmedina/global-music-2025-n_80/sequences/isi_16/len120/seq067_len120_s10_isi-1p0_0p0_16p0.json","10.69","true","g78sladlyjx","","2840","https://mcdermottlab.mit.edu/mturk_stimuli/bjmedina/global-music-2025-n_80/mem_stim_29.wav","0","main","","","false","mem_stim_29.wav","false","-1","","1","correct_rejection"
"","","","","","html-keyboard-response","96","288900","0.0-10.0-1.32","https://mcdermottlab.mit.edu/mturk_stimuli/bjmedina/global-music-2025-n_80/sequences/isi_16/len120/seq067_len120_s10_isi-1p0_0p0_16p0.json","10.69","true","g78sladlyjx","","null","<span style=""font-size: 40px"">+</span>","null","","","","","","","","","",""
"","","","","","audio-button-response","97","291244","0.0-10.0-2.32","https://mcdermottlab.mit.edu/mturk_stimuli/bjmedina/global-music-2025-n_80/sequences/isi_16/len120/seq067_len120_s10_isi-1p0_0p0_16p0.json","10.69","true","g78sladlyjx","","2349","https://mcdermottlab.mit.edu/mturk_stimuli/bjmedina/global-music-2025-n_80/mem_stim_61.wav","3","main","","","true","mem_stim_61.wav","false","16","","0","miss"
"","","","","","html-keyboard-response","98","291301","0.0-10.0-1.33","https://mcdermottlab.mit.edu/mturk_stimuli/bjmedina/global-music-2025-n_80/sequences/isi_16/len120/seq067_len120_s10_isi-1p0_0p0_16p0.json","10.69","true","g78sladlyjx","","null","<span style=""font-size: 40px"">+</span>","null","","","","","","","","","",""
"","","","","","audio-button-response","99","294693","0.0-10.0-2.33","https://mcdermottlab.mit.edu/mturk_stimuli/bjmedina/global-music-2025-n_80/sequences/isi_16/len120/seq067_len120_s10_isi-1p0_0p0_16p0.json","10.69","true","g78sladlyjx","","3221","https://mcdermottlab.mit.edu/mturk_stimuli/bjmedina/global-music-2025-n_80/mem_stim_60.wav","1","main","","","false","mem_stim_60.wav","false","-1","","0","false_alarm"
"","","","","","html-keyboard-response","100","294747","0.0-10.0-1.34","https://mcdermottlab.mit.edu/mturk_stimuli/bjmedina/global-music-2025-n_80/sequences/isi_16/len120/seq067_len120_s10_isi-1p0_0p0_16p0.json","10.69","true","g78sladlyjx","","null","<span style=""font-size: 40px"">+</span>","null","","","","","","","","","",""
"","","","","","audio-button-response","101","297198","0.0-10.0-2.34","https://mcdermottlab.mit.edu/mturk_stimuli/bjmedina/global-music-2025-n_80/sequences/isi_16/len120/seq067_len120_s10_isi-1p0_0p0_16p0.json","10.69","true","g78sladlyjx","","2448","https://mcdermottlab.mit.edu/mturk_stimuli/bjmedina/global-music-2025-n_80/mem_stim_60.wav","3","main","","","true","mem_stim_60.wav","true","0","","0","miss"
"","","","","","html-keyboard-response","102","297264","0.0-10.0-1.35","https://mcdermottlab.mit.edu/mturk_stimuli/bjmedina/global-music-2025-n_80/sequences/isi_16/len120/seq067_len120_s10_isi-1p0_0p0_16p0.json","10.69","true","g78sladlyjx","","null","<span style=""font-size: 40px"">+</span>","null","","","","","","","","","",""
"","","","","","audio-button-response","103","302224","0.0-10.0-2.35","https://mcdermottlab.mit.edu/mturk_stimuli/bjmedina/global-music-2025-n_80/sequences/isi_16/len120/seq067_len120_s10_isi-1p0_0p0_16p0.json","10.69","true","g78sladlyjx","","4800","https://mcdermottlab.mit.edu/mturk_stimuli/bjmedina/global-music-2025-n_80/mem_stim_71.wav","0","main","","","false","mem_stim_71.wav","false","-1","","1","correct_rejection"
"","","","","","html-keyboard-response","104","302292","0.0-10.0-1.36","https://mcdermottlab.mit.edu/mturk_stimuli/bjmedina/global-music-2025-n_80/sequences/isi_16/len120/seq067_len120_s10_isi-1p0_0p0_16p0.json","10.69","true","g78sladlyjx","","null","<span style=""font-size: 40px"">+</span>","null","","","","","","","","","",""
"","","","","","audio-button-response","105","304718","0.0-10.0-2.36","https://mcdermottlab.mit.edu/mturk_stimuli/bjmedina/global-music-2025-n_80/sequences/isi_16/len120/seq067_len120_s10_isi-1p0_0p0_16p0.json","10.69","true","g78sladlyjx","","2419","https://mcdermottlab.mit.edu/mturk_stimuli/bjmedina/global-music-2025-n_80/mem_stim_71.wav","3","main","","","true","mem_stim_71.wav","true","0","","0","miss"
"","","","","","html-keyboard-response","106","304782","0.0-10.0-1.37","https://mcdermottlab.mit.edu/mturk_stimuli/bjmedina/global-music-2025-n_80/sequences/isi_16/len120/seq067_len120_s10_isi-1p0_0p0_16p0.json","10.69","true","g78sladlyjx","","null","<span style=""font-size: 40px"">+</span>","null","","","","","","","","","",""
"","","","","","audio-button-response","107","309354","0.0-10.0-2.37","https://mcdermottlab.mit.edu/mturk_stimuli/bjmedina/global-music-2025-n_80/sequences/isi_16/len120/seq067_len120_s10_isi-1p0_0p0_16p0.json","10.69","true","g78sladlyjx","","4408","https://mcdermottlab.mit.edu/mturk_stimuli/bjmedina/global-music-2025-n_80/mem_stim_53.wav","1","main","","","false","mem_stim_53.wav","false","-1","","0","false_alarm"
"","","","","","html-keyboard-response","108","309420","0.0-10.0-1.38","https://mcdermottlab.mit.edu/mturk_stimuli/bjmedina/global-music-2025-n_80/sequences/isi_16/len120/seq067_len120_s10_isi-1p0_0p0_16p0.json","10.69","true","g78sladlyjx","","null","<span style=""font-size: 40px"">+</span>","null","","","","","","","","","",""
"","","","","","audio-button-response","109","312186","0.0-10.0-2.38","https://mcdermottlab.mit.edu/mturk_stimuli/bjmedina/global-music-2025-n_80/sequences/isi_16/len120/seq067_len120_s10_isi-1p0_0p0_16p0.json","10.69","true","g78sladlyjx","","2600","https://mcdermottlab.mit.edu/mturk_stimuli/bjmedina/global-music-2025-n_80/mem_stim_49.wav","0","main","","","false","mem_stim_49.wav","false","-1","","1","correct_rejection"
"","","","","","html-keyboard-response","110","312240","0.0-10.0-1.39","https://mcdermottlab.mit.edu/mturk_stimuli/bjmedina/global-music-2025-n_80/sequences/isi_16/len120/seq067_len120_s10_isi-1p0_0p0_16p0.json","10.69","true","g78sladlyjx","","null","<span style=""font-size: 40px"">+</span>","null","","","","","","","","","",""
"","","","","","audio-button-response","111","314858","0.0-10.0-2.39","https://mcdermottlab.mit.edu/mturk_stimuli/bjmedina/global-music-2025-n_80/sequences/isi_16/len120/seq067_len120_s10_isi-1p0_0p0_16p0.json","10.69","true","g78sladlyjx","","2461","https://mcdermottlab.mit.edu/mturk_stimuli/bjmedina/global-music-2025-n_80/mem_stim_6.wav","0","main","","","false","mem_stim_6.wav","false","-1","","1","correct_rejection"
"","","","","","html-keyboard-response","112","314921","0.0-10.0-1.40","https://mcdermottlab.mit.edu/mturk_stimuli/bjmedina/global-music-2025-n_80/sequences/isi_16/len120/seq067_len120_s10_isi-1p0_0p0_16p0.json","10.69","true","g78sladlyjx","","null","<span style=""font-size: 40px"">+</span>","null","","","","","","","","","",""
"","","","","","audio-button-response","113","318119","0.0-10.0-2.40","https://mcdermottlab.mit.edu/mturk_stimuli/bjmedina/global-music-2025-n_80/sequences/isi_16/len120/seq067_len120_s10_isi-1p0_0p0_16p0.json","10.69","true","g78sladlyjx","","3189","https://mcdermottlab.mit.edu/mturk_stimuli/bjmedina/global-music-2025-n_80/mem_stim_73.wav","0","main","","","true","mem_stim_73.wav","false","16","","0","miss"
"","","","","","html-keyboard-response","114","318176","0.0-10.0-1.41","https://mcdermottlab.mit.edu/mturk_stimuli/bjmedina/global-music-2025-n_80/sequences/isi_16/len120/seq067_len120_s10_isi-1p0_0p0_16p0.json","10.69","true","g78sladlyjx","","null","<span style=""font-size: 40px"">+</span>","null","","","","","","","","","",""
"","","","","","audio-button-response","115","320792","0.0-10.0-2.41","https://mcdermottlab.mit.edu/mturk_stimuli/bjmedina/global-music-2025-n_80/sequences/isi_16/len120/seq067_len120_s10_isi-1p0_0p0_16p0.json","10.69","true","g78sladlyjx","","2459","https://mcdermottlab.mit.edu/mturk_stimuli/bjmedina/global-music-2025-n_80/mem_stim_31.wav","3","main","","","false","mem_stim_31.wav","false","-1","","1","correct_rejection"
"","","","","","html-keyboard-response","116","320852","0.0-10.0-1.42","https://mcdermottlab.mit.edu/mturk_stimuli/bjmedina/global-music-2025-n_80/sequences/isi_16/len120/seq067_len120_s10_isi-1p0_0p0_16p0.json","10.69","true","g78sladlyjx","","null","<span style=""font-size: 40px"">+</span>","null","","","","","","","","","",""
"","","","","","audio-button-response","117","323166","0.0-10.0-2.42","https://mcdermottlab.mit.edu/mturk_stimuli/bjmedina/global-music-2025-n_80/sequences/isi_16/len120/seq067_len120_s10_isi-1p0_0p0_16p0.json","10.69","true","g78sladlyjx","","2309","https://mcdermottlab.mit.edu/mturk_stimuli/bjmedina/global-music-2025-n_80/mem_stim_31.wav","3","main","","","true","mem_stim_31.wav","true","0","","0","miss"
"","","","","","html-keyboard-response","118","323220","0.0-10.0-1.43","https://mcdermottlab.mit.edu/mturk_stimuli/bjmedina/global-music-2025-n_80/sequences/isi_16/len120/seq067_len120_s10_isi-1p0_0p0_16p0.json","10.69","true","g78sladlyjx","","null","<span style=""font-size: 40px"">+</span>","null","","","","","","","","","",""
"","","","","","audio-button-response","119","326795","0.0-10.0-2.43","https://mcdermottlab.mit.edu/mturk_stimuli/bjmedina/global-music-2025-n_80/sequences/isi_16/len120/seq067_len120_s10_isi-1p0_0p0_16p0.json","10.69","true","g78sladlyjx","","3419","https://mcdermottlab.mit.edu/mturk_stimuli/bjmedina/global-music-2025-n_80/mem_stim_37.wav","0","main","","","false","mem_stim_37.wav","false","-1","","1","correct_rejection"
"","","","","","html-keyboard-response","120","326860","0.0-10.0-1.44","https://mcdermottlab.mit.edu/mturk_stimuli/bjmedina/global-music-2025-n_80/sequences/isi_16/len120/seq067_len120_s10_isi-1p0_0p0_16p0.json","10.69","true","g78sladlyjx","","null","<span style=""font-size: 40px"">+</span>","null","","","","","","","","","",""
"","","","","","audio-button-response","121","331261","0.0-10.0-2.44","https://mcdermottlab.mit.edu/mturk_stimuli/bjmedina/global-music-2025-n_80/sequences/isi_16/len120/seq067_len120_s10_isi-1p0_0p0_16p0.json","10.69","true","g78sladlyjx","","4240","https://mcdermottlab.mit.edu/mturk_stimuli/bjmedina/global-music-2025-n_80/mem_stim_15.wav","2","main","","","false","mem_stim_15.wav","false","-1","","1","correct_rejection"
"","","","","","html-keyboard-response","122","331315","0.0-10.0-1.45","https://mcdermottlab.mit.edu/mturk_stimuli/bjmedina/global-music-2025-n_80/sequences/isi_16/len120/seq067_len120_s10_isi-1p0_0p0_16p0.json","10.69","true","g78sladlyjx","","null","<span style=""font-size: 40px"">+</span>","null","","","","","","","","","",""
"","","","","","audio-button-response","123","333848","0.0-10.0-2.45","https://mcdermottlab.mit.edu/mturk_stimuli/bjmedina/global-music-2025-n_80/sequences/isi_16/len120/seq067_len120_s10_isi-1p0_0p0_16p0.json","10.69","true","g78sladlyjx","","2360","https://mcdermottlab.mit.edu/mturk_stimuli/bjmedina/global-music-2025-n_80/mem_stim_50.wav","0","main","","","false","mem_stim_50.wav","false","-1","","1","correct_rejection"
"","","","","","html-keyboard-response","124","333911","0.0-10.0-1.46","https://mcdermottlab.mit.edu/mturk_stimuli/bjmedina/global-music-2025-n_80/sequences/isi_16/len120/seq067_len120_s10_isi-1p0_0p0_16p0.json","10.69","true","g78sladlyjx","","null","<span style=""font-size: 40px"">+</span>","null","","","","","","","","","",""
"","","","","","audio-button-response","125","336468","0.0-10.0-2.46","https://mcdermottlab.mit.edu/mturk_stimuli/bjmedina/global-music-2025-n_80/sequences/isi_16/len120/seq067_len120_s10_isi-1p0_0p0_16p0.json","10.69","true","g78sladlyjx","","2392","https://mcdermottlab.mit.edu/mturk_stimuli/bjmedina/global-music-2025-n_80/mem_stim_69.wav","0","main","","","false","mem_stim_69.wav","false","-1","","1","correct_rejection"
"","","","","","html-keyboard-response","126","336529","0.0-10.0-1.47","https://mcdermottlab.mit.edu/mturk_stimuli/bjmedina/global-music-2025-n_80/sequences/isi_16/len120/seq067_len120_s10_isi-1p0_0p0_16p0.json","10.69","true","g78sladlyjx","","null","<span style=""font-size: 40px"">+</span>","null","","","","","","","","","",""
"","","","","","audio-button-response","127","339470","0.0-10.0-2.47","https://mcdermottlab.mit.edu/mturk_stimuli/bjmedina/global-music-2025-n_80/sequences/isi_16/len120/seq067_len120_s10_isi-1p0_0p0_16p0.json","10.69","true","g78sladlyjx","","2781","https://mcdermottlab.mit.edu/mturk_stimuli/bjmedina/global-music-2025-n_80/mem_stim_26.wav","1","main","","","false","mem_stim_26.wav","false","-1","","0","false_alarm"
"","","","","","html-keyboard-response","128","339535","0.0-10.0-1.48","https://mcdermottlab.mit.edu/mturk_stimuli/bjmedina/global-music-2025-n_80/sequences/isi_16/len120/seq067_len120_s10_isi-1p0_0p0_16p0.json","10.69","true","g78sladlyjx","","null","<span style=""font-size: 40px"">+</span>","null","","","","","","","","","",""
"","","","","","audio-button-response","129","342945","0.0-10.0-2.48","https://mcdermottlab.mit.edu/mturk_stimuli/bjmedina/global-music-2025-n_80/sequences/isi_16/len120/seq067_len120_s10_isi-1p0_0p0_16p0.json","10.69","true","g78sladlyjx","","3261","https://mcdermottlab.mit.edu/mturk_stimuli/bjmedina/global-music-2025-n_80/mem_stim_41.wav","1","main","","","false","mem_stim_41.wav","false","-1","","0","false_alarm"
"","","","","","html-keyboard-response","130","343004","0.0-10.0-1.49","https://mcdermottlab.mit.edu/mturk_stimuli/bjmedina/global-music-2025-n_80/sequences/isi_16/len120/seq067_len120_s10_isi-1p0_0p0_16p0.json","10.69","true","g78sladlyjx","","null","<span style=""font-size: 40px"">+</span>","null","","","","","","","","","",""
"","","","","","audio-button-response","131","345421","0.0-10.0-2.49","https://mcdermottlab.mit.edu/mturk_stimuli/bjmedina/global-music-2025-n_80/sequences/isi_16/len120/seq067_len120_s10_isi-1p0_0p0_16p0.json","10.69","true","g78sladlyjx","","2411","https://mcdermottlab.mit.edu/mturk_stimuli/bjmedina/global-music-2025-n_80/mem_stim_41.wav","3","main","","","true","mem_stim_41.wav","true","0","","0","miss"
"","","","","","html-keyboard-response","132","345479","0.0-10.0-1.50","https://mcdermottlab.mit.edu/mturk_stimuli/bjmedina/global-music-2025-n_80/sequences/isi_16/len120/seq067_len120_s10_isi-1p0_0p0_16p0.json","10.69","true","g78sladlyjx","","null","<span style=""font-size: 40px"">+</span>","null","","","","","","","","","",""
"","","","","","audio-button-response","133","349611","0.0-10.0-2.50","https://mcdermottlab.mit.edu/mturk_stimuli/bjmedina/global-music-2025-n_80/sequences/isi_16/len120/seq067_len120_s10_isi-1p0_0p0_16p0.json","10.69","true","g78sladlyjx","","3971","https://mcdermottlab.mit.edu/mturk_stimuli/bjmedina/global-music-2025-n_80/mem_stim_0.wav","1","main","","","false","mem_stim_0.wav","false","-1","","0","false_alarm"
"","","","","","html-keyboard-response","134","349676","0.0-10.0-1.51","https://mcdermottlab.mit.edu/mturk_stimuli/bjmedina/global-music-2025-n_80/sequences/isi_16/len120/seq067_len120_s10_isi-1p0_0p0_16p0.json","10.69","true","g78sladlyjx","","null","<span style=""font-size: 40px"">+</span>","null","","","","","","","","","",""
"","","","","","audio-button-response","135","352435","0.0-10.0-2.51","https://mcdermottlab.mit.edu/mturk_stimuli/bjmedina/global-music-2025-n_80/sequences/isi_16/len120/seq067_len120_s10_isi-1p0_0p0_16p0.json","10.69","true","g78sladlyjx","","2589","https://mcdermottlab.mit.edu/mturk_stimuli/bjmedina/global-music-2025-n_80/mem_stim_67.wav","0","main","","","false","mem_stim_67.wav","false","-1","","1","correct_rejection"
"","","","","","html-keyboard-response","136","352495","0.0-10.0-1.52","https://mcdermottlab.mit.edu/mturk_stimuli/bjmedina/global-music-2025-n_80/sequences/isi_16/len120/seq067_len120_s10_isi-1p0_0p0_16p0.json","10.69","true","g78sladlyjx","","null","<span style=""font-size: 40px"">+</span>","null","","","","","","","","","",""
"","","","","","audio-button-response","137","354834","0.0-10.0-2.52","https://mcdermottlab.mit.edu/mturk_stimuli/bjmedina/global-music-2025-n_80/sequences/isi_16/len120/seq067_len120_s10_isi-1p0_0p0_16p0.json","10.69","true","g78sladlyjx","","2339","https://mcdermottlab.mit.edu/mturk_stimuli/bjmedina/global-music-2025-n_80/mem_stim_67.wav","3","main","","","true","mem_stim_67.wav","true","0","","0","miss"
"","","","","","html-keyboard-response","138","354900","0.0-10.0-1.53","https://mcdermottlab.mit.edu/mturk_stimuli/bjmedina/global-music-2025-n_80/sequences/isi_16/len120/seq067_len120_s10_isi-1p0_0p0_16p0.json","10.69","true","g78sladlyjx","","null","<span style=""font-size: 40px"">+</span>","null","","","","","","","","","",""
"","","","","","audio-button-response","139","359142","0.0-10.0-2.53","https://mcdermottlab.mit.edu/mturk_stimuli/bjmedina/global-music-2025-n_80/sequences/isi_16/len120/seq067_len120_s10_isi-1p0_0p0_16p0.json","10.69","true","g78sladlyjx","","4080","https://mcdermottlab.mit.edu/mturk_stimuli/bjmedina/global-music-2025-n_80/mem_stim_43.wav","0","main","","","false","mem_stim_43.wav","false","-1","","1","correct_rejection"
"","","","","","html-keyboard-response","140","359202","0.0-10.0-1.54","https://mcdermottlab.mit.edu/mturk_stimuli/bjmedina/global-music-2025-n_80/sequences/isi_16/len120/seq067_len120_s10_isi-1p0_0p0_16p0.json","10.69","true","g78sladlyjx","","null","<span style=""font-size: 40px"">+</span>","null","","","","","","","","","",""
"","","","","","audio-button-response","141","362255","0.0-10.0-2.54","https://mcdermottlab.mit.edu/mturk_stimuli/bjmedina/global-music-2025-n_80/sequences/isi_16/len120/seq067_len120_s10_isi-1p0_0p0_16p0.json","10.69","true","g78sladlyjx","","3051","https://mcdermottlab.mit.edu/mturk_stimuli/bjmedina/global-music-2025-n_80/mem_stim_53.wav","2","main","","","true","mem_stim_53.wav","false","16","","0","miss"
"","","","","","html-keyboard-response","142","362314","0.0-10.0-1.55","https://mcdermottlab.mit.edu/mturk_stimuli/bjmedina/global-music-2025-n_80/sequences/isi_16/len120/seq067_len120_s10_isi-1p0_0p0_16p0.json","10.69","true","g78sladlyjx","","null","<span style=""font-size: 40px"">+</span>","null","","","","","","","","","",""
"","","","","","audio-button-response","143","366388","0.0-10.0-2.55","https://mcdermottlab.mit.edu/mturk_stimuli/bjmedina/global-music-2025-n_80/sequences/isi_16/len120/seq067_len120_s10_isi-1p0_0p0_16p0.json","10.69","true","g78sladlyjx","","3912","https://mcdermottlab.mit.edu/mturk_stimuli/bjmedina/global-music-2025-n_80/mem_stim_18.wav","1","main","","","false","mem_stim_18.wav","false","-1","","0","false_alarm"
"","","","","","html-keyboard-response","144","366450","0.0-10.0-1.56","https://mcdermottlab.mit.edu/mturk_stimuli/bjmedina/global-music-2025-n_80/sequences/isi_16/len120/seq067_len120_s10_isi-1p0_0p0_16p0.json","10.69","true","g78sladlyjx","","null","<span style=""font-size: 40px"">+</span>","null","","","","","","","","","",""
"","","","","","audio-button-response","145","368844","0.0-10.0-2.56","https://mcdermottlab.mit.edu/mturk_stimuli/bjmedina/global-music-2025-n_80/sequences/isi_16/len120/seq067_len120_s10_isi-1p0_0p0_16p0.json","10.69","true","g78sladlyjx","","2389","https://mcdermottlab.mit.edu/mturk_stimuli/bjmedina/global-music-2025-n_80/mem_stim_6.wav","3","main","","","true","mem_stim_6.wav","false","16","","0","miss"
"","","","","","html-keyboard-response","146","368900","0.0-10.0-1.57","https://mcdermottlab.mit.edu/mturk_stimuli/bjmedina/global-music-2025-n_80/sequences/isi_16/len120/seq067_len120_s10_isi-1p0_0p0_16p0.json","10.69","true","g78sladlyjx","","null","<span style=""font-size: 40px"">+</span>","null","","","","","","","","","",""
"","","","","","audio-button-response","147","373303","0.0-10.0-2.57","https://mcdermottlab.mit.edu/mturk_stimuli/bjmedina/global-music-2025-n_80/sequences/isi_16/len120/seq067_len120_s10_isi-1p0_0p0_16p0.json","10.69","true","g78sladlyjx","","4251","https://mcdermottlab.mit.edu/mturk_stimuli/bjmedina/global-music-2025-n_80/mem_stim_14.wav","1","main","","","false","mem_stim_14.wav","false","-1","","0","false_alarm"
"","","","","","html-keyboard-response","148","373363","0.0-10.0-1.58","https://mcdermottlab.mit.edu/mturk_stimuli/bjmedina/global-music-2025-n_80/sequences/isi_16/len120/seq067_len120_s10_isi-1p0_0p0_16p0.json","10.69","true","g78sladlyjx","","null","<span style=""font-size: 40px"">+</span>","null","","","","","","","","","",""
"","","","","","audio-button-response","149","375964","0.0-10.0-2.58","https://mcdermottlab.mit.edu/mturk_stimuli/bjmedina/global-music-2025-n_80/sequences/isi_16/len120/seq067_len120_s10_isi-1p0_0p0_16p0.json","10.69","true","g78sladlyjx","","2440","https://mcdermottlab.mit.edu/mturk_stimuli/bjmedina/global-music-2025-n_80/mem_stim_45.wav","0","main","","","false","mem_stim_45.wav","false","-1","","1","correct_rejection"
"","","","","","html-keyboard-response","150","376034","0.0-10.0-1.59","https://mcdermottlab.mit.edu/mturk_stimuli/bjmedina/global-music-2025-n_80/sequences/isi_16/len120/seq067_len120_s10_isi-1p0_0p0_16p0.json","10.69","true","g78sladlyjx","","null","<span style=""font-size: 40px"">+</span>","null","","","","","","","","","",""
"","","","","","audio-button-response","151","379583","0.0-10.0-2.59","https://mcdermottlab.mit.edu/mturk_stimuli/bjmedina/global-music-2025-n_80/sequences/isi_16/len120/seq067_len120_s10_isi-1p0_0p0_16p0.json","10.69","true","g78sladlyjx","","3392","https://mcdermottlab.mit.edu/mturk_stimuli/bjmedina/global-music-2025-n_80/mem_stim_4.wav","1","main","","","false","mem_stim_4.wav","false","-1","","0","false_alarm"
"","","","","","html-keyboard-response","152","379647","0.0-10.0-1.60","https://mcdermottlab.mit.edu/mturk_stimuli/bjmedina/global-music-2025-n_80/sequences/isi_16/len120/seq067_len120_s10_isi-1p0_0p0_16p0.json","10.69","true","g78sladlyjx","","null","<span style=""font-size: 40px"">+</span>","null","","","","","","","","","",""
"","","","","","audio-button-response","153","382224","0.0-10.0-2.60","https://mcdermottlab.mit.edu/mturk_stimuli/bjmedina/global-music-2025-n_80/sequences/isi_16/len120/seq067_len120_s10_isi-1p0_0p0_16p0.json","10.69","true","g78sladlyjx","","2421","https://mcdermottlab.mit.edu/mturk_stimuli/bjmedina/global-music-2025-n_80/mem_stim_32.wav","0","main","","","false","mem_stim_32.wav","false","-1","","1","correct_rejection"
"","","","","","html-keyboard-response","154","382279","0.0-10.0-1.61","https://mcdermottlab.mit.edu/mturk_stimuli/bjmedina/global-music-2025-n_80/sequences/isi_16/len120/seq067_len120_s10_isi-1p0_0p0_16p0.json","10.69","true","g78sladlyjx","","null","<span style=""font-size: 40px"">+</span>","null","","","","","","","","","",""
"","","","","","audio-button-response","155","385572","0.0-10.0-2.61","https://mcdermottlab.mit.edu/mturk_stimuli/bjmedina/global-music-2025-n_80/sequences/isi_16/len120/seq067_len120_s10_isi-1p0_0p0_16p0.json","10.69","true","g78sladlyjx","","3141","https://mcdermottlab.mit.edu/mturk_stimuli/bjmedina/global-music-2025-n_80/mem_stim_62.wav","0","main","","","false","mem_stim_62.wav","false","-1","","1","correct_rejection"
"","","","","","html-keyboard-response","156","385635","0.0-10.0-1.62","https://mcdermottlab.mit.edu/mturk_stimuli/bjmedina/global-music-2025-n_80/sequences/isi_16/len120/seq067_len120_s10_isi-1p0_0p0_16p0.json","10.69","true","g78sladlyjx","","null","<span style=""font-size: 40px"">+</span>","null","","","","","","","","","",""
"","","","","","audio-button-response","157","388466","0.0-10.0-2.62","https://mcdermottlab.mit.edu/mturk_stimuli/bjmedina/global-music-2025-n_80/sequences/isi_16/len120/seq067_len120_s10_isi-1p0_0p0_16p0.json","10.69","true","g78sladlyjx","","2832","https://mcdermottlab.mit.edu/mturk_stimuli/bjmedina/global-music-2025-n_80/mem_stim_50.wav","2","main","","","true","mem_stim_50.wav","false","16","","0","miss"
"","","","","","html-keyboard-response","158","388520","0.0-10.0-1.63","https://mcdermottlab.mit.edu/mturk_stimuli/bjmedina/global-music-2025-n_80/sequences/isi_16/len120/seq067_len120_s10_isi-1p0_0p0_16p0.json","10.69","true","g78sladlyjx","","null","<span style=""font-size: 40px"">+</span>","null","","","","","","","","","",""
"","","","","","audio-button-response","159","390904","0.0-10.0-2.63","https://mcdermottlab.mit.edu/mturk_stimuli/bjmedina/global-music-2025-n_80/sequences/isi_16/len120/seq067_len120_s10_isi-1p0_0p0_16p0.json","10.69","true","g78sladlyjx","","2392","https://mcdermottlab.mit.edu/mturk_stimuli/bjmedina/global-music-2025-n_80/mem_stim_69.wav","3","main","","","true","mem_stim_69.wav","false","16","","0","miss"
"","","","","","html-keyboard-response","160","390960","0.0-10.0-1.64","https://mcdermottlab.mit.edu/mturk_stimuli/bjmedina/global-music-2025-n_80/sequences/isi_16/len120/seq067_len120_s10_isi-1p0_0p0_16p0.json","10.69","true","g78sladlyjx","","null","<span style=""font-size: 40px"">+</span>","null","","","","","","","","","",""
"","","","","","audio-button-response","161","393462","0.0-10.0-2.64","https://mcdermottlab.mit.edu/mturk_stimuli/bjmedina/global-music-2025-n_80/sequences/isi_16/len120/seq067_len120_s10_isi-1p0_0p0_16p0.json","10.69","true","g78sladlyjx","","2501","https://mcdermottlab.mit.edu/mturk_stimuli/bjmedina/global-music-2025-n_80/mem_stim_26.wav","2","main","","","true","mem_stim_26.wav","false","16","","0","miss"
"","","","","","html-keyboard-response","162","393517","0.0-10.0-1.65","https://mcdermottlab.mit.edu/mturk_stimuli/bjmedina/global-music-2025-n_80/sequences/isi_16/len120/seq067_len120_s10_isi-1p0_0p0_16p0.json","10.69","true","g78sladlyjx","","null","<span style=""font-size: 40px"">+</span>","null","","","","","","","","","",""
"","","","","","audio-button-response","163","396081","0.0-10.0-2.65","https://mcdermottlab.mit.edu/mturk_stimuli/bjmedina/global-music-2025-n_80/sequences/isi_16/len120/seq067_len120_s10_isi-1p0_0p0_16p0.json","10.69","true","g78sladlyjx","","2411","https://mcdermottlab.mit.edu/mturk_stimuli/bjmedina/global-music-2025-n_80/mem_stim_65.wav","0","main","","","false","mem_stim_65.wav","false","-1","","1","correct_rejection"
"","","","","","html-keyboard-response","164","396145","0.0-10.0-1.66","https://mcdermottlab.mit.edu/mturk_stimuli/bjmedina/global-music-2025-n_80/sequences/isi_16/len120/seq067_len120_s10_isi-1p0_0p0_16p0.json","10.69","true","g78sladlyjx","","null","<span style=""font-size: 40px"">+</span>","null","","","","","","","","","",""
"","","","","","audio-button-response","165","399797","0.0-10.0-2.66","https://mcdermottlab.mit.edu/mturk_stimuli/bjmedina/global-music-2025-n_80/sequences/isi_16/len120/seq067_len120_s10_isi-1p0_0p0_16p0.json","10.69","true","g78sladlyjx","","3488","https://mcdermottlab.mit.edu/mturk_stimuli/bjmedina/global-music-2025-n_80/mem_stim_48.wav","1","main","","","false","mem_stim_48.wav","false","-1","","0","false_alarm"
"","","","","","html-keyboard-response","166","399863","0.0-10.0-1.67","https://mcdermottlab.mit.edu/mturk_stimuli/bjmedina/global-music-2025-n_80/sequences/isi_16/len120/seq067_len120_s10_isi-1p0_0p0_16p0.json","10.69","true","g78sladlyjx","","null","<span style=""font-size: 40px"">+</span>","null","","","","","","","","","",""
"","","","","","audio-button-response","167","402964","0.0-10.0-2.67","https://mcdermottlab.mit.edu/mturk_stimuli/bjmedina/global-music-2025-n_80/sequences/isi_16/len120/seq067_len120_s10_isi-1p0_0p0_16p0.json","10.69","true","g78sladlyjx","","2931","https://mcdermottlab.mit.edu/mturk_stimuli/bjmedina/global-music-2025-n_80/mem_stim_17.wav","1","main","","","false","mem_stim_17.wav","false","-1","","0","false_alarm"
"","","","","","html-keyboard-response","168","403019","0.0-10.0-1.68","https://mcdermottlab.mit.edu/mturk_stimuli/bjmedina/global-music-2025-n_80/sequences/isi_16/len120/seq067_len120_s10_isi-1p0_0p0_16p0.json","10.69","true","g78sladlyjx","","null","<span style=""font-size: 40px"">+</span>","null","","","","","","","","","",""
"","","","","","audio-button-response","169","405565","0.0-10.0-2.68","https://mcdermottlab.mit.edu/mturk_stimuli/bjmedina/global-music-2025-n_80/sequences/isi_16/len120/seq067_len120_s10_isi-1p0_0p0_16p0.json","10.69","true","g78sladlyjx","","2379","https://mcdermottlab.mit.edu/mturk_stimuli/bjmedina/global-music-2025-n_80/mem_stim_33.wav","0","main","","","false","mem_stim_33.wav","false","-1","","1","correct_rejection"
"","","","","","html-keyboard-response","170","405622","0.0-10.0-1.69","https://mcdermottlab.mit.edu/mturk_stimuli/bjmedina/global-music-2025-n_80/sequences/isi_16/len120/seq067_len120_s10_isi-1p0_0p0_16p0.json","10.69","true","g78sladlyjx","","null","<span style=""font-size: 40px"">+</span>","null","","","","","","","","","",""
"","","","","","audio-button-response","171","408447","0.0-10.0-2.69","https://mcdermottlab.mit.edu/mturk_stimuli/bjmedina/global-music-2025-n_80/sequences/isi_16/len120/seq067_len120_s10_isi-1p0_0p0_16p0.json","10.69","true","g78sladlyjx","","2659","https://mcdermottlab.mit.edu/mturk_stimuli/bjmedina/global-music-2025-n_80/mem_stim_36.wav","0","main","","","false","mem_stim_36.wav","false","-1","","1","correct_rejection"
"","","","","","html-keyboard-response","172","408502","0.0-10.0-1.70","https://mcdermottlab.mit.edu/mturk_stimuli/bjmedina/global-music-2025-n_80/sequences/isi_16/len120/seq067_len120_s10_isi-1p0_0p0_16p0.json","10.69","true","g78sladlyjx","","null","<span style=""font-size: 40px"">+</span>","null","","","","","","","","","",""
"","","","","","audio-button-response","173","411338","0.0-10.0-2.70","https://mcdermottlab.mit.edu/mturk_stimuli/bjmedina/global-music-2025-n_80/sequences/isi_16/len120/seq067_len120_s10_isi-1p0_0p0_16p0.json","10.69","true","g78sladlyjx","","2669","https://mcdermottlab.mit.edu/mturk_stimuli/bjmedina/global-music-2025-n_80/mem_stim_25.wav","0","main","","","false","mem_stim_25.wav","false","-1","","1","correct_rejection"
"","","","","","html-keyboard-response","174","411393","0.0-10.0-1.71","https://mcdermottlab.mit.edu/mturk_stimuli/bjmedina/global-music-2025-n_80/sequences/isi_16/len120/seq067_len120_s10_isi-1p0_0p0_16p0.json","10.69","true","g78sladlyjx","","null","<span style=""font-size: 40px"">+</span>","null","","","","","","","","","",""
"","","","","","audio-button-response","175","414100","0.0-10.0-2.71","https://mcdermottlab.mit.edu/mturk_stimuli/bjmedina/global-music-2025-n_80/sequences/isi_16/len120/seq067_len120_s10_isi-1p0_0p0_16p0.json","10.69","true","g78sladlyjx","","2541","https://mcdermottlab.mit.edu/mturk_stimuli/bjmedina/global-music-2025-n_80/mem_stim_72.wav","0","main","","","false","mem_stim_72.wav","false","-1","","1","correct_rejection"
"","","","","","html-keyboard-response","176","414157","0.0-10.0-1.72","https://mcdermottlab.mit.edu/mturk_stimuli/bjmedina/global-music-2025-n_80/sequences/isi_16/len120/seq067_len120_s10_isi-1p0_0p0_16p0.json","10.69","true","g78sladlyjx","","null","<span style=""font-size: 40px"">+</span>","null","","","","","","","","","",""
"","","","","","audio-button-response","177","416975","0.0-10.0-2.72","https://mcdermottlab.mit.edu/mturk_stimuli/bjmedina/global-music-2025-n_80/sequences/isi_16/len120/seq067_len120_s10_isi-1p0_0p0_16p0.json","10.69","true","g78sladlyjx","","2651","https://mcdermottlab.mit.edu/mturk_stimuli/bjmedina/global-music-2025-n_80/mem_stim_64.wav","0","main","","","false","mem_stim_64.wav","false","-1","","1","correct_rejection"
"","","","","","html-keyboard-response","178","417032","0.0-10.0-1.73","https://mcdermottlab.mit.edu/mturk_stimuli/bjmedina/global-music-2025-n_80/sequences/isi_16/len120/seq067_len120_s10_isi-1p0_0p0_16p0.json","10.69","true","g78sladlyjx","","null","<span style=""font-size: 40px"">+</span>","null","","","","","","","","","",""
"","","","","","audio-button-response","179","420897","0.0-10.0-2.73","https://mcdermottlab.mit.edu/mturk_stimuli/bjmedina/global-music-2025-n_80/sequences/isi_16/len120/seq067_len120_s10_isi-1p0_0p0_16p0.json","10.69","true","g78sladlyjx","","3701","https://mcdermottlab.mit.edu/mturk_stimuli/bjmedina/global-music-2025-n_80/mem_stim_2.wav","1","main","","","false","mem_stim_2.wav","false","-1","","0","false_alarm"
"","","","","","html-keyboard-response","180","420964","0.0-10.0-1.74","https://mcdermottlab.mit.edu/mturk_stimuli/bjmedina/global-music-2025-n_80/sequences/isi_16/len120/seq067_len120_s10_isi-1p0_0p0_16p0.json","10.69","true","g78sladlyjx","","null","<span style=""font-size: 40px"">+</span>","null","","","","","","","","","",""
"","","","","","audio-button-response","181","423587","0.0-10.0-2.74","https://mcdermottlab.mit.edu/mturk_stimuli/bjmedina/global-music-2025-n_80/sequences/isi_16/len120/seq067_len120_s10_isi-1p0_0p0_16p0.json","10.69","true","g78sladlyjx","","2461","https://mcdermottlab.mit.edu/mturk_stimuli/bjmedina/global-music-2025-n_80/mem_stim_34.wav","0","main","","","false","mem_stim_34.wav","false","-1","","1","correct_rejection"
"","","","","","html-keyboard-response","182","423647","0.0-10.0-1.75","https://mcdermottlab.mit.edu/mturk_stimuli/bjmedina/global-music-2025-n_80/sequences/isi_16/len120/seq067_len120_s10_isi-1p0_0p0_16p0.json","10.69","true","g78sladlyjx","","null","<span style=""font-size: 40px"">+</span>","null","","","","","","","","","",""
"","","","","","audio-button-response","183","426125","0.0-10.0-2.75","https://mcdermottlab.mit.edu/mturk_stimuli/bjmedina/global-music-2025-n_80/sequences/isi_16/len120/seq067_len120_s10_isi-1p0_0p0_16p0.json","10.69","true","g78sladlyjx","","2480","https://mcdermottlab.mit.edu/mturk_stimuli/bjmedina/global-music-2025-n_80/mem_stim_45.wav","3","main","","","true","mem_stim_45.wav","false","16","","0","miss"
"","","","","","html-keyboard-response","184","426180","0.0-10.0-1.76","https://mcdermottlab.mit.edu/mturk_stimuli/bjmedina/global-music-2025-n_80/sequences/isi_16/len120/seq067_len120_s10_isi-1p0_0p0_16p0.json","10.69","true","g78sladlyjx","","null","<span style=""font-size: 40px"">+</span>","null","","","","","","","","","",""
"","","","","","audio-button-response","185","429823","0.0-10.0-2.76","https://mcdermottlab.mit.edu/mturk_stimuli/bjmedina/global-music-2025-n_80/sequences/isi_16/len120/seq067_len120_s10_isi-1p0_0p0_16p0.json","10.69","true","g78sladlyjx","","3651","https://mcdermottlab.mit.edu/mturk_stimuli/bjmedina/global-music-2025-n_80/mem_stim_4.wav","2","main","","","true","mem_stim_4.wav","false","16","","0","miss"
"","","","","","html-keyboard-response","186","429880","0.0-10.0-1.77","https://mcdermottlab.mit.edu/mturk_stimuli/bjmedina/global-music-2025-n_80/sequences/isi_16/len120/seq067_len120_s10_isi-1p0_0p0_16p0.json","10.69","true","g78sladlyjx","","null","<span style=""font-size: 40px"">+</span>","null","","","","","","","","","",""
"","","","","","audio-button-response","187","432928","0.0-10.0-2.77","https://mcdermottlab.mit.edu/mturk_stimuli/bjmedina/global-music-2025-n_80/sequences/isi_16/len120/seq067_len120_s10_isi-1p0_0p0_16p0.json","10.69","true","g78sladlyjx","","3040","https://mcdermottlab.mit.edu/mturk_stimuli/bjmedina/global-music-2025-n_80/mem_stim_32.wav","2","main","","","true","mem_stim_32.wav","false","16","","0","miss"
"","","","","","html-keyboard-response","188","432983","0.0-10.0-1.78","https://mcdermottlab.mit.edu/mturk_stimuli/bjmedina/global-music-2025-n_80/sequences/isi_16/len120/seq067_len120_s10_isi-1p0_0p0_16p0.json","10.69","true","g78sladlyjx","","null","<span style=""font-size: 40px"">+</span>","null","","","","","","","","","",""
"","","","","","audio-button-response","189","436078","0.0-10.0-2.78","https://mcdermottlab.mit.edu/mturk_stimuli/bjmedina/global-music-2025-n_80/sequences/isi_16/len120/seq067_len120_s10_isi-1p0_0p0_16p0.json","10.69","true","g78sladlyjx","","3088","https://mcdermottlab.mit.edu/mturk_stimuli/bjmedina/global-music-2025-n_80/mem_stim_62.wav","3","main","","","true","mem_stim_62.wav","false","16","","0","miss"
"","","","","","html-keyboard-response","190","436143","0.0-10.0-1.79","https://mcdermottlab.mit.edu/mturk_stimuli/bjmedina/global-music-2025-n_80/sequences/isi_16/len120/seq067_len120_s10_isi-1p0_0p0_16p0.json","10.69","true","g78sladlyjx","","null","<span style=""font-size: 40px"">+</span>","null","","","","","","","","","",""
"","","","","","audio-button-response","191","439145","0.0-10.0-2.79","https://mcdermottlab.mit.edu/mturk_stimuli/bjmedina/global-music-2025-n_80/sequences/isi_16/len120/seq067_len120_s10_isi-1p0_0p0_16p0.json","10.69","true","g78sladlyjx","","2840","https://mcdermottlab.mit.edu/mturk_stimuli/bjmedina/global-music-2025-n_80/mem_stim_56.wav","1","main","","","false","mem_stim_56.wav","false","-1","","0","false_alarm"
"","","","","","html-keyboard-response","192","439202","0.0-10.0-1.80","https://mcdermottlab.mit.edu/mturk_stimuli/bjmedina/global-music-2025-n_80/sequences/isi_16/len120/seq067_len120_s10_isi-1p0_0p0_16p0.json","10.69","true","g78sladlyjx","","null","<span style=""font-size: 40px"">+</span>","null","","","","","","","","","",""
"","","","","","audio-button-response","193","442122","0.0-10.0-2.80","https://mcdermottlab.mit.edu/mturk_stimuli/bjmedina/global-music-2025-n_80/sequences/isi_16/len120/seq067_len120_s10_isi-1p0_0p0_16p0.json","10.69","true","g78sladlyjx","","2760","https://mcdermottlab.mit.edu/mturk_stimuli/bjmedina/global-music-2025-n_80/mem_stim_70.wav","0","main","","","false","mem_stim_70.wav","false","-1","","1","correct_rejection"
"","","","","","html-keyboard-response","194","442178","0.0-10.0-1.81","https://mcdermottlab.mit.edu/mturk_stimuli/bjmedina/global-music-2025-n_80/sequences/isi_16/len120/seq067_len120_s10_isi-1p0_0p0_16p0.json","10.69","true","g78sladlyjx","","null","<span style=""font-size: 40px"">+</span>","null","","","","","","","","","",""
"","","","","","audio-button-response","195","444881","0.0-10.0-2.81","https://mcdermottlab.mit.edu/mturk_stimuli/bjmedina/global-music-2025-n_80/sequences/isi_16/len120/seq067_len120_s10_isi-1p0_0p0_16p0.json","10.69","true","g78sladlyjx","","2539","https://mcdermottlab.mit.edu/mturk_stimuli/bjmedina/global-music-2025-n_80/mem_stim_59.wav","0","main","","","false","mem_stim_59.wav","false","-1","","1","correct_rejection"
"","","","","","html-keyboard-response","196","444937","0.0-10.0-1.82","https://mcdermottlab.mit.edu/mturk_stimuli/bjmedina/global-music-2025-n_80/sequences/isi_16/len120/seq067_len120_s10_isi-1p0_0p0_16p0.json","10.69","true","g78sladlyjx","","null","<span style=""font-size: 40px"">+</span>","null","","","","","","","","","",""
"","","","","","audio-button-response","197","447713","0.0-10.0-2.82","https://mcdermottlab.mit.edu/mturk_stimuli/bjmedina/global-music-2025-n_80/sequences/isi_16/len120/seq067_len120_s10_isi-1p0_0p0_16p0.json","10.69","true","g78sladlyjx","","2608","https://mcdermottlab.mit.edu/mturk_stimuli/bjmedina/global-music-2025-n_80/mem_stim_22.wav","0","main","","","false","mem_stim_22.wav","false","-1","","1","correct_rejection"
"","","","","","html-keyboard-response","198","447770","0.0-10.0-1.83","https://mcdermottlab.mit.edu/mturk_stimuli/bjmedina/global-music-2025-n_80/sequences/isi_16/len120/seq067_len120_s10_isi-1p0_0p0_16p0.json","10.69","true","g78sladlyjx","","null","<span style=""font-size: 40px"">+</span>","null","","","","","","","","","",""
"","","","","","audio-button-response","199","452287","0.0-10.0-2.83","https://mcdermottlab.mit.edu/mturk_stimuli/bjmedina/global-music-2025-n_80/sequences/isi_16/len120/seq067_len120_s10_isi-1p0_0p0_16p0.json","10.69","true","g78sladlyjx","","4509","https://mcdermottlab.mit.edu/mturk_stimuli/bjmedina/global-music-2025-n_80/mem_stim_48.wav","2","main","","","true","mem_stim_48.wav","false","16","","0","miss"
"","","","","","html-keyboard-response","200","452345","0.0-10.0-1.84","https://mcdermottlab.mit.edu/mturk_stimuli/bjmedina/global-music-2025-n_80/sequences/isi_16/len120/seq067_len120_s10_isi-1p0_0p0_16p0.json","10.69","true","g78sladlyjx","","null","<span style=""font-size: 40px"">+</span>","null","","","","","","","","","",""
"","","","","","audio-button-response","201","455799","0.0-10.0-2.84","https://mcdermottlab.mit.edu/mturk_stimuli/bjmedina/global-music-2025-n_80/sequences/isi_16/len120/seq067_len120_s10_isi-1p0_0p0_16p0.json","10.69","true","g78sladlyjx","","3280","https://mcdermottlab.mit.edu/mturk_stimuli/bjmedina/global-music-2025-n_80/mem_stim_24.wav","1","main","","","false","mem_stim_24.wav","false","-1","","0","false_alarm"
"","","","","","html-keyboard-response","202","455858","0.0-10.0-1.85","https://mcdermottlab.mit.edu/mturk_stimuli/bjmedina/global-music-2025-n_80/sequences/isi_16/len120/seq067_len120_s10_isi-1p0_0p0_16p0.json","10.69","true","g78sladlyjx","","null","<span style=""font-size: 40px"">+</span>","null","","","","","","","","","",""
"","","","","","audio-button-response","203","458252","0.0-10.0-2.85","https://mcdermottlab.mit.edu/mturk_stimuli/bjmedina/global-music-2025-n_80/sequences/isi_16/len120/seq067_len120_s10_isi-1p0_0p0_16p0.json","10.69","true","g78sladlyjx","","2400","https://mcdermottlab.mit.edu/mturk_stimuli/bjmedina/global-music-2025-n_80/mem_stim_33.wav","3","main","","","true","mem_stim_33.wav","false","16","","0","miss"
"","","","","","html-keyboard-response","204","458309","0.0-10.0-1.86","https://mcdermottlab.mit.edu/mturk_stimuli/bjmedina/global-music-2025-n_80/sequences/isi_16/len120/seq067_len120_s10_isi-1p0_0p0_16p0.json","10.69","true","g78sladlyjx","","null","<span style=""font-size: 40px"">+</span>","null","","","","","","","","","",""
"","","","","","audio-button-response","205","461713","0.0-10.0-2.86","https://mcdermottlab.mit.edu/mturk_stimuli/bjmedina/global-music-2025-n_80/sequences/isi_16/len120/seq067_len120_s10_isi-1p0_0p0_16p0.json","10.69","true","g78sladlyjx","","3248","https://mcdermottlab.mit.edu/mturk_stimuli/bjmedina/global-music-2025-n_80/mem_stim_58.wav","0","main","","","false","mem_stim_58.wav","false","-1","","1","correct_rejection"
"","","","","","html-keyboard-response","206","461770","0.0-10.0-1.87","https://mcdermottlab.mit.edu/mturk_stimuli/bjmedina/global-music-2025-n_80/sequences/isi_16/len120/seq067_len120_s10_isi-1p0_0p0_16p0.json","10.69","true","g78sladlyjx","","null","<span style=""font-size: 40px"">+</span>","null","","","","","","","","","",""
"","","","","","audio-button-response","207","464815","0.0-10.0-2.87","https://mcdermottlab.mit.edu/mturk_stimuli/bjmedina/global-music-2025-n_80/sequences/isi_16/len120/seq067_len120_s10_isi-1p0_0p0_16p0.json","10.69","true","g78sladlyjx","","3051","https://mcdermottlab.mit.edu/mturk_stimuli/bjmedina/global-music-2025-n_80/mem_stim_25.wav","2","main","","","true","mem_stim_25.wav","false","16","","0","miss"
"","","","","","html-keyboard-response","208","464873","0.0-10.0-1.88","https://mcdermottlab.mit.edu/mturk_stimuli/bjmedina/global-music-2025-n_80/sequences/isi_16/len120/seq067_len120_s10_isi-1p0_0p0_16p0.json","10.69","true","g78sladlyjx","","null","<span style=""font-size: 40px"">+</span>","null","","","","","","","","","",""
"","","","","","audio-button-response","209","467708","0.0-10.0-2.88","https://mcdermottlab.mit.edu/mturk_stimuli/bjmedina/global-music-2025-n_80/sequences/isi_16/len120/seq067_len120_s10_isi-1p0_0p0_16p0.json","10.69","true","g78sladlyjx","","2672","https://mcdermottlab.mit.edu/mturk_stimuli/bjmedina/global-music-2025-n_80/mem_stim_13.wav","1","main","","","false","mem_stim_13.wav","false","-1","","0","false_alarm"
"","","","","","html-keyboard-response","210","467764","0.0-10.0-1.89","https://mcdermottlab.mit.edu/mturk_stimuli/bjmedina/global-music-2025-n_80/sequences/isi_16/len120/seq067_len120_s10_isi-1p0_0p0_16p0.json","10.69","true","g78sladlyjx","","null","<span style=""font-size: 40px"">+</span>","null","","","","","","","","","",""
"","","","","","audio-button-response","211","470208","0.0-10.0-2.89","https://mcdermottlab.mit.edu/mturk_stimuli/bjmedina/global-music-2025-n_80/sequences/isi_16/len120/seq067_len120_s10_isi-1p0_0p0_16p0.json","10.69","true","g78sladlyjx","","2440","https://mcdermottlab.mit.edu/mturk_stimuli/bjmedina/global-music-2025-n_80/mem_stim_64.wav","3","main","","","true","mem_stim_64.wav","false","16","","0","miss"
"","","","","","html-keyboard-response","212","470266","0.0-10.0-1.90","https://mcdermottlab.mit.edu/mturk_stimuli/bjmedina/global-music-2025-n_80/sequences/isi_16/len120/seq067_len120_s10_isi-1p0_0p0_16p0.json","10.69","true","g78sladlyjx","","null","<span style=""font-size: 40px"">+</span>","null","","","","","","","","","",""
"","","","","","audio-button-response","213","472741","0.0-10.0-2.90","https://mcdermottlab.mit.edu/mturk_stimuli/bjmedina/global-music-2025-n_80/sequences/isi_16/len120/seq067_len120_s10_isi-1p0_0p0_16p0.json","10.69","true","g78sladlyjx","","2320","https://mcdermottlab.mit.edu/mturk_stimuli/bjmedina/global-music-2025-n_80/mem_stim_39.wav","0","main","","","false","mem_stim_39.wav","false","-1","","1","correct_rejection"
"","","","","","html-keyboard-response","214","472800","0.0-10.0-1.91","https://mcdermottlab.mit.edu/mturk_stimuli/bjmedina/global-music-2025-n_80/sequences/isi_16/len120/seq067_len120_s10_isi-1p0_0p0_16p0.json","10.69","true","g78sladlyjx","","null","<span style=""font-size: 40px"">+</span>","null","","","","","","","","","",""
"","","","","","audio-button-response","215","475513","0.0-10.0-2.91","https://mcdermottlab.mit.edu/mturk_stimuli/bjmedina/global-music-2025-n_80/sequences/isi_16/len120/seq067_len120_s10_isi-1p0_0p0_16p0.json","10.69","true","g78sladlyjx","","2539","https://mcdermottlab.mit.edu/mturk_stimuli/bjmedina/global-music-2025-n_80/mem_stim_51.wav","0","main","","","false","mem_stim_51.wav","false","-1","","1","correct_rejection"
"","","","","","html-keyboard-response","216","475574","0.0-10.0-1.92","https://mcdermottlab.mit.edu/mturk_stimuli/bjmedina/global-music-2025-n_80/sequences/isi_16/len120/seq067_len120_s10_isi-1p0_0p0_16p0.json","10.69","true","g78sladlyjx","","null","<span style=""font-size: 40px"">+</span>","null","","","","","","","","","",""
"","","","","","audio-button-response","217","478346","0.0-10.0-2.92","https://mcdermottlab.mit.edu/mturk_stimuli/bjmedina/global-music-2025-n_80/sequences/isi_16/len120/seq067_len120_s10_isi-1p0_0p0_16p0.json","10.69","true","g78sladlyjx","","2571","https://mcdermottlab.mit.edu/mturk_stimuli/bjmedina/global-music-2025-n_80/mem_stim_5.wav","0","main","","","false","mem_stim_5.wav","false","-1","","1","correct_rejection"
"","","","","","html-keyboard-response","218","478402","0.0-10.0-1.93","https://mcdermottlab.mit.edu/mturk_stimuli/bjmedina/global-music-2025-n_80/sequences/isi_16/len120/seq067_len120_s10_isi-1p0_0p0_16p0.json","10.69","true","g78sladlyjx","","null","<span style=""font-size: 40px"">+</span>","null","","","","","","","","","",""
"","","","","","audio-button-response","219","481124","0.0-10.0-2.93","https://mcdermottlab.mit.edu/mturk_stimuli/bjmedina/global-music-2025-n_80/sequences/isi_16/len120/seq067_len120_s10_isi-1p0_0p0_16p0.json","10.69","true","g78sladlyjx","","2560","https://mcdermottlab.mit.edu/mturk_stimuli/bjmedina/global-music-2025-n_80/mem_stim_9.wav","0","main","","","false","mem_stim_9.wav","false","-1","","1","correct_rejection"
"","","","","","html-keyboard-response","220","481180","0.0-10.0-1.94","https://mcdermottlab.mit.edu/mturk_stimuli/bjmedina/global-music-2025-n_80/sequences/isi_16/len120/seq067_len120_s10_isi-1p0_0p0_16p0.json","10.69","true","g78sladlyjx","","null","<span style=""font-size: 40px"">+</span>","null","","","","","","","","","",""
"","","","","","audio-button-response","221","483542","0.0-10.0-2.94","https://mcdermottlab.mit.edu/mturk_stimuli/bjmedina/global-music-2025-n_80/sequences/isi_16/len120/seq067_len120_s10_isi-1p0_0p0_16p0.json","10.69","true","g78sladlyjx","","2371","https://mcdermottlab.mit.edu/mturk_stimuli/bjmedina/global-music-2025-n_80/mem_stim_9.wav","3","main","","","true","mem_stim_9.wav","true","0","","0","miss"
"","","","","","html-keyboard-response","222","483600","0.0-10.0-1.95","https://mcdermottlab.mit.edu/mturk_stimuli/bjmedina/global-music-2025-n_80/sequences/isi_16/len120/seq067_len120_s10_isi-1p0_0p0_16p0.json","10.69","true","g78sladlyjx","","null","<span style=""font-size: 40px"">+</span>","null","","","","","","","","","",""
"","","","","","audio-button-response","223","486159","0.0-10.0-2.95","https://mcdermottlab.mit.edu/mturk_stimuli/bjmedina/global-music-2025-n_80/sequences/isi_16/len120/seq067_len120_s10_isi-1p0_0p0_16p0.json","10.69","true","g78sladlyjx","","2389","https://mcdermottlab.mit.edu/mturk_stimuli/bjmedina/global-music-2025-n_80/mem_stim_8.wav","0","main","","","false","mem_stim_8.wav","false","-1","","1","correct_rejection"
"","","","","","html-keyboard-response","224","486215","0.0-10.0-1.96","https://mcdermottlab.mit.edu/mturk_stimuli/bjmedina/global-music-2025-n_80/sequences/isi_16/len120/seq067_len120_s10_isi-1p0_0p0_16p0.json","10.69","true","g78sladlyjx","","null","<span style=""font-size: 40px"">+</span>","null","","","","","","","","","",""
"","","","","","audio-button-response","225","488889","0.0-10.0-2.96","https://mcdermottlab.mit.edu/mturk_stimuli/bjmedina/global-music-2025-n_80/sequences/isi_16/len120/seq067_len120_s10_isi-1p0_0p0_16p0.json","10.69","true","g78sladlyjx","","2509","https://mcdermottlab.mit.edu/mturk_stimuli/bjmedina/global-music-2025-n_80/mem_stim_74.wav","0","main","","","false","mem_stim_74.wav","false","-1","","1","correct_rejection"
"","","","","","html-keyboard-response","226","488946","0.0-10.0-1.97","https://mcdermottlab.mit.edu/mturk_stimuli/bjmedina/global-music-2025-n_80/sequences/isi_16/len120/seq067_len120_s10_isi-1p0_0p0_16p0.json","10.69","true","g78sladlyjx","","null","<span style=""font-size: 40px"">+</span>","null","","","","","","","","","",""
"","","","","","audio-button-response","227","491291","0.0-10.0-2.97","https://mcdermottlab.mit.edu/mturk_stimuli/bjmedina/global-music-2025-n_80/sequences/isi_16/len120/seq067_len120_s10_isi-1p0_0p0_16p0.json","10.69","true","g78sladlyjx","","2349","https://mcdermottlab.mit.edu/mturk_stimuli/bjmedina/global-music-2025-n_80/mem_stim_70.wav","0","main","","","true","mem_stim_70.wav","false","16","","0","miss"
"","","","","","html-keyboard-response","228","491348","0.0-10.0-1.98","https://mcdermottlab.mit.edu/mturk_stimuli/bjmedina/global-music-2025-n_80/sequences/isi_16/len120/seq067_len120_s10_isi-1p0_0p0_16p0.json","10.69","true","g78sladlyjx","","null","<span style=""font-size: 40px"">+</span>","null","","","","","","","","","",""
"","","","","","audio-button-response","229","495118","0.0-10.0-2.98","https://mcdermottlab.mit.edu/mturk_stimuli/bjmedina/global-music-2025-n_80/sequences/isi_16/len120/seq067_len120_s10_isi-1p0_0p0_16p0.json","10.69","true","g78sladlyjx","","3768","https://mcdermottlab.mit.edu/mturk_stimuli/bjmedina/global-music-2025-n_80/mem_stim_59.wav","2","main","","","true","mem_stim_59.wav","false","16","","0","miss"
"","","","","","html-keyboard-response","230","495178","0.0-10.0-1.99","https://mcdermottlab.mit.edu/mturk_stimuli/bjmedina/global-music-2025-n_80/sequences/isi_16/len120/seq067_len120_s10_isi-1p0_0p0_16p0.json","10.69","true","g78sladlyjx","","null","<span style=""font-size: 40px"">+</span>","null","","","","","","","","","",""
"","","","","","audio-button-response","231","499418","0.0-10.0-2.99","https://mcdermottlab.mit.edu/mturk_stimuli/bjmedina/global-music-2025-n_80/sequences/isi_16/len120/seq067_len120_s10_isi-1p0_0p0_16p0.json","10.69","true","g78sladlyjx","","4080","https://mcdermottlab.mit.edu/mturk_stimuli/bjmedina/global-music-2025-n_80/mem_stim_19.wav","1","main","","","false","mem_stim_19.wav","false","-1","","0","false_alarm"
"","","","","","html-keyboard-response","232","499475","0.0-10.0-1.100","https://mcdermottlab.mit.edu/mturk_stimuli/bjmedina/global-music-2025-n_80/sequences/isi_16/len120/seq067_len120_s10_isi-1p0_0p0_16p0.json","10.69","true","g78sladlyjx","","null","<span style=""font-size: 40px"">+</span>","null","","","","","","","","","",""
"","","","","","audio-button-response","233","503683","0.0-10.0-2.100","https://mcdermottlab.mit.edu/mturk_stimuli/bjmedina/global-music-2025-n_80/sequences/isi_16/len120/seq067_len120_s10_isi-1p0_0p0_16p0.json","10.69","true","g78sladlyjx","","4051","https://mcdermottlab.mit.edu/mturk_stimuli/bjmedina/global-music-2025-n_80/mem_stim_63.wav","1","main","","","false","mem_stim_63.wav","false","-1","","0","false_alarm"
"","","","","","html-keyboard-response","234","503739","0.0-10.0-1.101","https://mcdermottlab.mit.edu/mturk_stimuli/bjmedina/global-music-2025-n_80/sequences/isi_16/len120/seq067_len120_s10_isi-1p0_0p0_16p0.json","10.69","true","g78sladlyjx","","null","<span style=""font-size: 40px"">+</span>","null","","","","","","","","","",""
"","","","","","audio-button-response","235","508836","0.0-10.0-2.101","https://mcdermottlab.mit.edu/mturk_stimuli/bjmedina/global-music-2025-n_80/sequences/isi_16/len120/seq067_len120_s10_isi-1p0_0p0_16p0.json","10.69","true","g78sladlyjx","","4928","https://mcdermottlab.mit.edu/mturk_stimuli/bjmedina/global-music-2025-n_80/mem_stim_54.wav","0","main","","","false","mem_stim_54.wav","false","-1","","1","correct_rejection"
"","","","","","html-keyboard-response","236","508892","0.0-10.0-1.102","https://mcdermottlab.mit.edu/mturk_stimuli/bjmedina/global-music-2025-n_80/sequences/isi_16/len120/seq067_len120_s10_isi-1p0_0p0_16p0.json","10.69","true","g78sladlyjx","","null","<span style=""font-size: 40px"">+</span>","null","","","","","","","","","",""
"","","","","","audio-button-response","237","511879","0.0-10.0-2.102","https://mcdermottlab.mit.edu/mturk_stimuli/bjmedina/global-music-2025-n_80/sequences/isi_16/len120/seq067_len120_s10_isi-1p0_0p0_16p0.json","10.69","true","g78sladlyjx","","2749","https://mcdermottlab.mit.edu/mturk_stimuli/bjmedina/global-music-2025-n_80/mem_stim_10.wav","0","main","","","false","mem_stim_10.wav","false","-1","","1","correct_rejection"
"","","","","","html-keyboard-response","238","511948","0.0-10.0-1.103","https://mcdermottlab.mit.edu/mturk_stimuli/bjmedina/global-music-2025-n_80/sequences/isi_16/len120/seq067_len120_s10_isi-1p0_0p0_16p0.json","10.69","true","g78sladlyjx","","null","<span style=""font-size: 40px"">+</span>","null","","","","","","","","","",""
"","","","","","audio-button-response","239","514878","0.0-10.0-2.103","https://mcdermottlab.mit.edu/mturk_stimuli/bjmedina/global-music-2025-n_80/sequences/isi_16/len120/seq067_len120_s10_isi-1p0_0p0_16p0.json","10.69","true","g78sladlyjx","","2739","https://mcdermottlab.mit.edu/mturk_stimuli/bjmedina/global-music-2025-n_80/mem_stim_12.wav","0","main","","","false","mem_stim_12.wav","false","-1","","1","correct_rejection"
"","","","","","html-keyboard-response","240","514941","0.0-10.0-1.104","https://mcdermottlab.mit.edu/mturk_stimuli/bjmedina/global-music-2025-n_80/sequences/isi_16/len120/seq067_len120_s10_isi-1p0_0p0_16p0.json","10.69","true","g78sladlyjx","","null","<span style=""font-size: 40px"">+</span>","null","","","","","","","","","",""
"","","","","","audio-button-response","241","518052","0.0-10.0-2.104","https://mcdermottlab.mit.edu/mturk_stimuli/bjmedina/global-music-2025-n_80/sequences/isi_16/len120/seq067_len120_s10_isi-1p0_0p0_16p0.json","10.69","true","g78sladlyjx","","2931","https://mcdermottlab.mit.edu/mturk_stimuli/bjmedina/global-music-2025-n_80/mem_stim_66.wav","1","main","","","false","mem_stim_66.wav","false","-1","","0","false_alarm"
"","","","","","html-keyboard-response","242","518117","0.0-10.0-1.105","https://mcdermottlab.mit.edu/mturk_stimuli/bjmedina/global-music-2025-n_80/sequences/isi_16/len120/seq067_len120_s10_isi-1p0_0p0_16p0.json","10.69","true","g78sladlyjx","","null","<span style=""font-size: 40px"">+</span>","null","","","","","","","","","",""
"","","","","","audio-button-response","243","521330","0.0-10.0-2.105","https://mcdermottlab.mit.edu/mturk_stimuli/bjmedina/global-music-2025-n_80/sequences/isi_16/len120/seq067_len120_s10_isi-1p0_0p0_16p0.json","10.69","true","g78sladlyjx","","3211","https://mcdermottlab.mit.edu/mturk_stimuli/bjmedina/global-music-2025-n_80/mem_stim_66.wav","3","main","","","true","mem_stim_66.wav","true","0","","0","miss"
"","","","","","html-keyboard-response","244","521395","0.0-10.0-1.106","https://mcdermottlab.mit.edu/mturk_stimuli/bjmedina/global-music-2025-n_80/sequences/isi_16/len120/seq067_len120_s10_isi-1p0_0p0_16p0.json","10.69","true","g78sladlyjx","","null","<span style=""font-size: 40px"">+</span>","null","","","","","","","","","",""
"","","","","","audio-button-response","245","523922","0.0-10.0-2.106","https://mcdermottlab.mit.edu/mturk_stimuli/bjmedina/global-music-2025-n_80/sequences/isi_16/len120/seq067_len120_s10_isi-1p0_0p0_16p0.json","10.69","true","g78sladlyjx","","2360","https://mcdermottlab.mit.edu/mturk_stimuli/bjmedina/global-music-2025-n_80/mem_stim_44.wav","0","main","","","false","mem_stim_44.wav","false","-1","","1","correct_rejection"
"","","","","","html-keyboard-response","246","523981","0.0-10.0-1.107","https://mcdermottlab.mit.edu/mturk_stimuli/bjmedina/global-music-2025-n_80/sequences/isi_16/len120/seq067_len120_s10_isi-1p0_0p0_16p0.json","10.69","true","g78sladlyjx","","null","<span style=""font-size: 40px"">+</span>","null","","","","","","","","","",""
"","","","","","audio-button-response","247","527065","0.0-10.0-2.107","https://mcdermottlab.mit.edu/mturk_stimuli/bjmedina/global-music-2025-n_80/sequences/isi_16/len120/seq067_len120_s10_isi-1p0_0p0_16p0.json","10.69","true","g78sladlyjx","","2901","https://mcdermottlab.mit.edu/mturk_stimuli/bjmedina/global-music-2025-n_80/mem_stim_38.wav","0","main","","","false","mem_stim_38.wav","false","-1","","1","correct_rejection"
"","","","","","html-keyboard-response","248","527124","0.0-10.0-1.108","https://mcdermottlab.mit.edu/mturk_stimuli/bjmedina/global-music-2025-n_80/sequences/isi_16/len120/seq067_len120_s10_isi-1p0_0p0_16p0.json","10.69","true","g78sladlyjx","","null","<span style=""font-size: 40px"">+</span>","null","","","","","","","","","",""
"","","","","","audio-button-response","249","529593","0.0-10.0-2.108","https://mcdermottlab.mit.edu/mturk_stimuli/bjmedina/global-music-2025-n_80/sequences/isi_16/len120/seq067_len120_s10_isi-1p0_0p0_16p0.json","10.69","true","g78sladlyjx","","2469","https://mcdermottlab.mit.edu/mturk_stimuli/bjmedina/global-music-2025-n_80/mem_stim_51.wav","2","main","","","true","mem_stim_51.wav","false","16","","0","miss"
"","","","","","html-keyboard-response","250","529652","0.0-10.0-1.109","https://mcdermottlab.mit.edu/mturk_stimuli/bjmedina/global-music-2025-n_80/sequences/isi_16/len120/seq067_len120_s10_isi-1p0_0p0_16p0.json","10.69","true","g78sladlyjx","","null","<span style=""font-size: 40px"">+</span>","null","","","","","","","","","",""
"","","","","","audio-button-response","251","532889","0.0-10.0-2.109","https://mcdermottlab.mit.edu/mturk_stimuli/bjmedina/global-music-2025-n_80/sequences/isi_16/len120/seq067_len120_s10_isi-1p0_0p0_16p0.json","10.69","true","g78sladlyjx","","3229","https://mcdermottlab.mit.edu/mturk_stimuli/bjmedina/global-music-2025-n_80/mem_stim_5.wav","2","main","","","true","mem_stim_5.wav","false","16","","0","miss"
"","","","","","html-keyboard-response","252","532949","0.0-10.0-1.110","https://mcdermottlab.mit.edu/mturk_stimuli/bjmedina/global-music-2025-n_80/sequences/isi_16/len120/seq067_len120_s10_isi-1p0_0p0_16p0.json","10.69","true","g78sladlyjx","","null","<span style=""font-size: 40px"">+</span>","null","","","","","","","","","",""
"","","","","","audio-button-response","253","535929","0.0-10.0-2.110","https://mcdermottlab.mit.edu/mturk_stimuli/bjmedina/global-music-2025-n_80/sequences/isi_16/len120/seq067_len120_s10_isi-1p0_0p0_16p0.json","10.69","true","g78sladlyjx","","2800","https://mcdermottlab.mit.edu/mturk_stimuli/bjmedina/global-music-2025-n_80/mem_stim_76.wav","2","main","","","false","mem_stim_76.wav","false","-1","","1","correct_rejection"
"","","","","","html-keyboard-response","254","535999","0.0-10.0-1.111","https://mcdermottlab.mit.edu/mturk_stimuli/bjmedina/global-music-2025-n_80/sequences/isi_16/len120/seq067_len120_s10_isi-1p0_0p0_16p0.json","10.69","true","g78sladlyjx","","null","<span style=""font-size: 40px"">+</span>","null","","","","","","","","","",""
"","","","","","audio-button-response","255","540862","0.0-10.0-2.111","https://mcdermottlab.mit.edu/mturk_stimuli/bjmedina/global-music-2025-n_80/sequences/isi_16/len120/seq067_len120_s10_isi-1p0_0p0_16p0.json","10.69","true","g78sladlyjx","","4720","https://mcdermottlab.mit.edu/mturk_stimuli/bjmedina/global-music-2025-n_80/mem_stim_78.wav","2","main","","","false","mem_stim_78.wav","false","-1","","1","correct_rejection"
"","","","","","html-keyboard-response","256","540919","0.0-10.0-1.112","https://mcdermottlab.mit.edu/mturk_stimuli/bjmedina/global-music-2025-n_80/sequences/isi_16/len120/seq067_len120_s10_isi-1p0_0p0_16p0.json","10.69","true","g78sladlyjx","","null","<span style=""font-size: 40px"">+</span>","null","","","","","","","","","",""
"","","","","","audio-button-response","257","543348","0.0-10.0-2.112","https://mcdermottlab.mit.edu/mturk_stimuli/bjmedina/global-music-2025-n_80/sequences/isi_16/len120/seq067_len120_s10_isi-1p0_0p0_16p0.json","10.69","true","g78sladlyjx","","2432","https://mcdermottlab.mit.edu/mturk_stimuli/bjmedina/global-music-2025-n_80/mem_stim_78.wav","3","main","","","true","mem_stim_78.wav","true","0","","0","miss"
"","","","","","html-keyboard-response","258","543412","0.0-10.0-1.113","https://mcdermottlab.mit.edu/mturk_stimuli/bjmedina/global-music-2025-n_80/sequences/isi_16/len120/seq067_len120_s10_isi-1p0_0p0_16p0.json","10.69","true","g78sladlyjx","","null","<span style=""font-size: 40px"">+</span>","null","","","","","","","","","",""
"","","","","","audio-button-response","259","545762","0.0-10.0-2.113","https://mcdermottlab.mit.edu/mturk_stimuli/bjmedina/global-music-2025-n_80/sequences/isi_16/len120/seq067_len120_s10_isi-1p0_0p0_16p0.json","10.69","true","g78sladlyjx","","2349","https://mcdermottlab.mit.edu/mturk_stimuli/bjmedina/global-music-2025-n_80/mem_stim_74.wav","3","main","","","true","mem_stim_74.wav","false","16","","0","miss"
"","","","","","html-keyboard-response","260","545824","0.0-10.0-1.114","https://mcdermottlab.mit.edu/mturk_stimuli/bjmedina/global-music-2025-n_80/sequences/isi_16/len120/seq067_len120_s10_isi-1p0_0p0_16p0.json","10.69","true","g78sladlyjx","","null","<span style=""font-size: 40px"">+</span>","null","","","","","","","","","",""
"","","","","","audio-button-response","261","548370","0.0-10.0-2.114","https://mcdermottlab.mit.edu/mturk_stimuli/bjmedina/global-music-2025-n_80/sequences/isi_16/len120/seq067_len120_s10_isi-1p0_0p0_16p0.json","10.69","true","g78sladlyjx","","2379","https://mcdermottlab.mit.edu/mturk_stimuli/bjmedina/global-music-2025-n_80/mem_stim_11.wav","0","main","","","false","mem_stim_11.wav","false","-1","","1","correct_rejection"
"","","","","","html-keyboard-response","262","548429","0.0-10.0-1.115","https://mcdermottlab.mit.edu/mturk_stimuli/bjmedina/global-music-2025-n_80/sequences/isi_16/len120/seq067_len120_s10_isi-1p0_0p0_16p0.json","10.69","true","g78sladlyjx","","null","<span style=""font-size: 40px"">+</span>","null","","","","","","","","","",""
"","","","","","audio-button-response","263","552130","0.0-10.0-2.115","https://mcdermottlab.mit.edu/mturk_stimuli/bjmedina/global-music-2025-n_80/sequences/isi_16/len120/seq067_len120_s10_isi-1p0_0p0_16p0.json","10.69","true","g78sladlyjx","","3531","https://mcdermottlab.mit.edu/mturk_stimuli/bjmedina/global-music-2025-n_80/mem_stim_20.wav","1","main","","","false","mem_stim_20.wav","false","-1","","0","false_alarm"
"","","","","","html-keyboard-response","264","552195","0.0-10.0-1.116","https://mcdermottlab.mit.edu/mturk_stimuli/bjmedina/global-music-2025-n_80/sequences/isi_16/len120/seq067_len120_s10_isi-1p0_0p0_16p0.json","10.69","true","g78sladlyjx","","null","<span style=""font-size: 40px"">+</span>","null","","","","","","","","","",""
"","","","","","audio-button-response","265","554628","0.0-10.0-2.116","https://mcdermottlab.mit.edu/mturk_stimuli/bjmedina/global-music-2025-n_80/sequences/isi_16/len120/seq067_len120_s10_isi-1p0_0p0_16p0.json","10.69","true","g78sladlyjx","","2432","https://mcdermottlab.mit.edu/mturk_stimuli/bjmedina/global-music-2025-n_80/mem_stim_20.wav","3","main","","","true","mem_stim_20.wav","true","0","","0","miss"
